<?xml-model href="http://hl7.org/fhir/STU3/bundle.sch" type="application/xml" schematypens="http://purl.oclc.org/dsdl/schematron"?>
<Bundle xmlns="http://hl7.org/fhir" xmlns:xsi="http://www.w3.org/2001/XMLSchema-instance" xsi:schemaLocation="http://hl7.org/fhir http://hl7.org/fhir/STU3/bundle.xsd">
    <id value="MO-XXX-JANGI"/>
    <meta>
        <profile value="http://nictiz.nl/fhir/StructureDefinition/Bundle-MedicationOverview"/>
    </meta>
    <type value="searchset"/>
    <total value="1"/>
    <entry>
        <fullUrl value="urn:uuid:47d443b5-d3db-11e9-9443-28f10e481d92"/>
        <resource>
            <List>
                <meta>
                    <profile value="http://nictiz.nl/fhir/StructureDefinition/MedicationOverview"/>
                </meta>
                <extension url="http://nictiz.nl/fhir/StructureDefinition/MedicationOverview-Verification">
                    <extension url="VerificationPatient">
                        <valueBoolean value="false"/>
                    </extension>
                    <extension url="VerificationHealthProfessional">
                        <valueBoolean value="false"/>
                    </extension>
                </extension>
                <status value="current"/>
                <mode value="snapshot"/>
                <code>
                    <coding>
                        <system value="http://snomed.info/sct"/>
                        <code value="11181000146103"/>
                        <display value="Actual medication overview (record artifact)"/>
                    </coding>
                    <text value="Medicatieoverzicht"/>
                </code>
                <subject>
                    <reference value="urn:uuid:47d439dd-d3db-11e9-9443-28f10e481d92"/>
                    <display value="I. XXX_Jangi"/>
                </subject>
                <date value="${DATE, T, D, -0}T00:00:00+02:00"/>
                <source>
                    <extension url="http://nictiz.nl/fhir/StructureDefinition/MedicationOverview-SourceOrganization">
                        <valueReference>
                            <reference value="urn:uuid:47d443b9-d3db-11e9-9443-28f10e481d92"/>
                            <display value="Apotheek de Gulle Gaper"/>
                        </valueReference>
                    </extension>
                    <display value="Apotheek de Gulle Gaper"/>
                </source>
                <entry>
                    <item>
                        <reference value="urn:uuid:47d4419b-d3db-11e9-9443-28f10e481d92"/>
                        <display value="Medicatieafspraak identifier: value='MBH_MO_123_3_MA_1', system='urn:oid:2.16.840.1.113883.2.4.3.11.999.77.16076005.1'"/>
                    </item>
                </entry>
                <entry>
                    <item>
                        <reference value="urn:uuid:47d44202-d3db-11e9-9443-28f10e481d92"/>
                        <display value="Medicatieafspraak identifier: value='MBH_MO_123_4_MA_1', system='urn:oid:2.16.840.1.113883.2.4.3.11.999.77.16076005.1'"/>
                    </item>
                </entry>
                <entry>
                    <item>
                        <reference value="urn:uuid:47d44281-d3db-11e9-9443-28f10e481d92"/>
                        <display value="Medicatieafspraak identifier: value='MBH_MO_123_6_MA_1', system='urn:oid:2.16.840.1.113883.2.4.3.11.999.77.16076005.1'"/>
                    </item>
                </entry>
                <entry>
                    <item>
                        <reference value="urn:uuid:47d44318-d3db-11e9-9443-28f10e481d92"/>
                        <display value="Medicatieafspraak identifier: value='MBH_MO_123_7_MA_1', system='urn:oid:2.16.840.1.113883.2.4.3.11.999.77.16076005.1'"/>
                    </item>
                </entry>
                <entry>
                    <item>
                        <reference value="urn:uuid:47d4436a-d3db-11e9-9443-28f10e481d92"/>
                        <display value="Medicatieafspraak identifier: value='MBH_MO_123_9_MA_1', system='urn:oid:2.16.840.1.113883.2.4.3.11.999.77.16076005.1'"/>
                    </item>
                </entry>
                <entry>
                    <item>
                        <reference value="urn:uuid:47d43e4b-d3db-11e9-9443-28f10e481d92"/>
                        <display value="Toedieningsafspraak identifier: value='MBH_MO_123_2_TA_1', system='urn:oid:2.16.840.1.113883.2.4.3.11.999.77.422037009.1'"/>
                    </item>
                </entry>
                <entry>
                    <item>
                        <reference value="urn:uuid:47d441c8-d3db-11e9-9443-28f10e481d92"/>
                        <display value="Toedieningsafspraak identifier: value='MBH_MO_123_3_TA_1', system='urn:oid:2.16.840.1.113883.2.4.3.11.999.77.422037009.1'"/>
                    </item>
                </entry>
                <entry>
                    <item>
                        <reference value="urn:uuid:47d4422b-d3db-11e9-9443-28f10e481d92"/>
                        <display value="Toedieningsafspraak identifier: value='MBH_MO_123_4_TA_1', system='urn:oid:2.16.840.1.113883.2.4.3.11.999.77.422037009.1'"/>
                    </item>
                </entry>
                <entry>
                    <item>
                        <reference value="urn:uuid:47d44249-d3db-11e9-9443-28f10e481d92"/>
                        <display value="Toedieningsafspraak identifier: value='MBH_MO_123_5_TA_1', system='urn:oid:2.16.840.1.113883.2.4.3.11.999.77.422037009.1'"/>
                    </item>
                </entry>
                <entry>
                    <item>
                        <reference value="urn:uuid:47d442ac-d3db-11e9-9443-28f10e481d92"/>
                        <display value="Toedieningsafspraak identifier: value='MBH_MO_123_6_TA_1', system='urn:oid:2.16.840.1.113883.2.4.3.11.999.77.422037009.1'"/>
                    </item>
                </entry>
                <entry>
                    <item>
                        <reference value="urn:uuid:47d44345-d3db-11e9-9443-28f10e481d92"/>
                        <display value="Toedieningsafspraak identifier: value='MBH_MO_123_8_TA_2', system='urn:oid:2.16.840.1.113883.2.4.3.11.999.77.422037009.1'"/>
                    </item>
                </entry>
                <entry>
                    <item>
                        <reference value="urn:uuid:47d44394-d3db-11e9-9443-28f10e481d92"/>
                        <display value="Toedieningsafspraak identifier: value='MBH_MO_123_10_TA_2', system='urn:oid:2.16.840.1.113883.2.4.3.11.999.77.422037009.1'"/>
                    </item>
                </entry>
                <entry>
                    <item>
                        <reference value="urn:uuid:47d43e2d-d3db-11e9-9443-28f10e481d92"/>
                        <display value="Medicatiegebruik identifier: value='MBH_MO_123_1_MGB_1', system='urn:oid:2.16.840.1.113883.2.4.3.11.999.77.6.1'"/>
                    </item>
                </entry>
                <entry>
                    <item>
                        <reference value="urn:uuid:47d441e7-d3db-11e9-9443-28f10e481d92"/>
                        <display value="Medicatiegebruik identifier: value='MBH_MO_123_3_MGB_1', system='urn:oid:2.16.840.1.113883.2.4.3.11.999.77.6.1'"/>
                    </item>
                </entry>
                <entry>
                    <item>
                        <reference value="urn:uuid:47d44269-d3db-11e9-9443-28f10e481d92"/>
                        <display value="Medicatiegebruik identifier: value='MBH_MO_123_5_MGB_1', system='urn:oid:2.16.840.1.113883.2.4.3.11.999.77.6.1'"/>
                    </item>
                </entry>
                <entry>
                    <item>
                        <reference value="urn:uuid:47d442cc-d3db-11e9-9443-28f10e481d92"/>
                        <display value="Medicatiegebruik identifier: value='MBH_MO_123_6_MGB_1', system='urn:oid:2.16.840.1.113883.2.4.3.11.999.77.6.1'"/>
                    </item>
                </entry>
                <entry>
                    <item>
                        <reference value="urn:uuid:47d442f7-d3db-11e9-9443-28f10e481d92"/>
                        <display value="Medicatiegebruik identifier: value='MBH_MO_123_6_MGB_2', system='urn:oid:2.16.840.1.113883.2.4.3.11.999.77.6.1'"/>
                    </item>
                </entry>
            </List>
        </resource>
    <search>
         <mode value="match"/>
      </search>
   </entry>
    <entry>
        <fullUrl value="urn:uuid:47d4419b-d3db-11e9-9443-28f10e481d92"/>
        <resource>
            <MedicationRequest>
                <meta>
                    <profile value="http://nictiz.nl/fhir/StructureDefinition/zib-MedicationAgreement"/>
                </meta>
                <extension url="http://nictiz.nl/fhir/StructureDefinition/zib-Medication-PeriodOfUse">
                    <valuePeriod>
                        <start value="${DATE, T, D, -15}T00:00:00+02:00"/>
                    </valuePeriod>
                </extension>
                <extension url="http://nictiz.nl/fhir/StructureDefinition/zib-MedicationUse-Duration">
                    <valueDuration>
                        <value value="4"/>
                        <unit value="week"/>
                        <system value="http://unitsofmeasure.org"/>
                        <code value="wk"/>
                    </valueDuration>
                </extension>
                <extension url="http://nictiz.nl/fhir/StructureDefinition/zib-Medication-MedicationTreatment">
                    <valueIdentifier>
                        <system value="urn:oid:2.16.840.1.113883.2.4.3.11.999.77.1.1"/>
                        <value value="MBH_MO_123_3"/>
                    </valueIdentifier>
                </extension>
                <extension url="http://nictiz.nl/fhir/StructureDefinition/zib-Medication-CopyIndicator">
                    <valueBoolean value="true"/>
                </extension>
                <identifier>
                    <system value="urn:oid:2.16.840.1.113883.2.4.3.11.999.77.16076005.1"/>
                    <value value="MBH_MO_123_3_MA_1"/>
                </identifier>
                <intent value="order"/>
                <category>
                    <coding>
                        <system value="http://snomed.info/sct"/>
                        <code value="16076005"/>
                        <display value="Prescription (procedure)"/>
                    </coding>
                    <text value="Medicatieafspraak"/>
                </category>
                <medicationReference>
                    <reference value="urn:oid:2.16.840.1.113883.2.4.4.10.44458"/>
                    <display value="GLIMEPIRIDE TABLET 3MG"/>
                </medicationReference>
                <subject>
                    <reference value="urn:uuid:47d439dd-d3db-11e9-9443-28f10e481d92"/>
                    <display value="I. XXX_Jangi"/>
                </subject>
                <authoredOn value="${DATE, T, D, -15}T09:13:00+02:00"/>
                <requester>
                    <extension url="http://nictiz.nl/fhir/StructureDefinition/zib-MedicationAgreement-RequesterRole">
                        <valueReference>
                            <reference value="urn:uuid:47d4419e-d3db-11e9-9443-28f10e481d92"/>
                            <display value="John de Vries || Huisartsen, niet nader gespecificeerd || Huisartsenpraktijk Pulver &amp; Partners"/>
                        </valueReference>
                    </extension>
                    <agent>
                        <reference value="urn:uuid:47d4419f-d3db-11e9-9443-28f10e481d92"/>
                        <display value="John de Vries"/>
                    </agent>
                </requester>
                <note>
                    <text value="Exact 4 weken"/>
                </note>
                <dosageInstruction>
                    <sequence value="1"/>
                    <text value="Vanaf ${DATE, T, D, -15}, gedurende 4 weken, 1 maal per dag 2 tabletten, oraal"/>
                    <timing>
                        <repeat>
                            <frequency value="1"/>
                            <period value="1"/>
                            <periodUnit value="d"/>
                        </repeat>
                    </timing>
                    <route>
                        <coding>
                            <system value="urn:oid:2.16.840.1.113883.2.4.4.9"/>
                            <code value="9"/>
                            <display value="oraal"/>
                        </coding>
                    </route>
                    <doseQuantity>
                        <value value="2"/>
                        <unit value="stuk"/>
                        <system value="urn:oid:2.16.840.1.113883.2.4.4.1.900.2"/>
                        <code value="245"/>
                    </doseQuantity>
                </dosageInstruction>
            </MedicationRequest>
        </resource>
    <search>
         <mode value="include"/>
      </search>
   </entry>
    <entry>
        <fullUrl value="urn:uuid:47d44202-d3db-11e9-9443-28f10e481d92"/>
        <resource>
            <MedicationRequest>
                <meta>
                    <profile value="http://nictiz.nl/fhir/StructureDefinition/zib-MedicationAgreement"/>
                </meta>
                <extension url="http://nictiz.nl/fhir/StructureDefinition/zib-Medication-PeriodOfUse">
                    <valuePeriod>
                        <start value="${DATE, T, D, -60}T00:00:00+02:00"/>
                    </valuePeriod>
                </extension>
                <extension url="http://nictiz.nl/fhir/StructureDefinition/zib-Medication-MedicationTreatment">
                    <valueIdentifier>
                        <system value="urn:oid:2.16.840.1.113883.2.4.3.11.999.77.1.1"/>
                        <value value="MBH_MO_123_4"/>
                    </valueIdentifier>
                </extension>
                <extension url="http://nictiz.nl/fhir/StructureDefinition/zib-Medication-CopyIndicator">
                    <valueBoolean value="true"/>
                </extension>
                <identifier>
                    <system value="urn:oid:2.16.840.1.113883.2.4.3.11.999.77.16076005.1"/>
                    <value value="MBH_MO_123_4_MA_1"/>
                </identifier>
                <intent value="order"/>
                <category>
                    <coding>
                        <system value="http://snomed.info/sct"/>
                        <code value="16076005"/>
                        <display value="Prescription (procedure)"/>
                    </coding>
                    <text value="Medicatieafspraak"/>
                </category>
                <medicationReference>
                    <reference value="urn:oid:2.16.840.1.113883.2.4.4.10.121312"/>
                    <display value="INSULINE GLARGINE INJVLST 100E/ML"/>
                </medicationReference>
                <subject>
                    <reference value="urn:uuid:47d439dd-d3db-11e9-9443-28f10e481d92"/>
                    <display value="I. XXX_Jangi"/>
                </subject>
                <authoredOn value="${DATE, T, D, -60}T09:13:00+02:00"/>
                <requester>
                    <extension url="http://nictiz.nl/fhir/StructureDefinition/zib-MedicationAgreement-RequesterRole">
                        <valueReference>
                            <reference value="urn:uuid:47d44204-d3db-11e9-9443-28f10e481d92"/>
                            <display value="I. Ternist || Medisch specialisten, inwendige geneeskunde || Antonius"/>
                        </valueReference>
                    </extension>
                    <agent>
                        <reference value="urn:uuid:47d44205-d3db-11e9-9443-28f10e481d92"/>
                        <display value="I. Ternist"/>
                    </agent>
                </requester>
                <dosageInstruction>
                    <sequence value="1"/>
                    <text value="Vanaf ${DATE, T, D, -60}, tot nader order, 1 maal per dag 10IE, SUBCUTAAN"/>
                    <timing>
                        <repeat>
                            <frequency value="1"/>
                            <period value="1"/>
                            <periodUnit value="d"/>
                        </repeat>
                    </timing>
                    <route>
                        <coding>
                            <system value="urn:oid:2.16.840.1.113883.2.4.4.9"/>
                            <code value="21"/>
                            <display value="subcutaan"/>
                        </coding>
                    </route>
                    <doseQuantity>
                        <value value="10"/>
                        <unit value="internationale eenheid"/>
                        <system value="urn:oid:2.16.840.1.113883.2.4.4.1.900.2"/>
                        <code value="217"/>
                    </doseQuantity>
                </dosageInstruction>
            </MedicationRequest>
        </resource>
    <search>
         <mode value="include"/>
      </search>
   </entry>
    <entry>
        <fullUrl value="urn:uuid:47d44281-d3db-11e9-9443-28f10e481d92"/>
        <resource>
            <MedicationRequest>
                <meta>
                    <profile value="http://nictiz.nl/fhir/StructureDefinition/zib-MedicationAgreement"/>
                </meta>
                <extension url="http://nictiz.nl/fhir/StructureDefinition/zib-Medication-PeriodOfUse">
                    <valuePeriod>
                        <start value="${DATE, T, D, -728}T00:00:00+02:00"/>
                    </valuePeriod>
                </extension>
                <extension url="http://nictiz.nl/fhir/StructureDefinition/zib-Medication-MedicationTreatment">
                    <valueIdentifier>
                        <system value="urn:oid:2.16.840.1.113883.2.4.3.11.999.77.1.1"/>
                        <value value="MBH_MO_123_6"/>
                    </valueIdentifier>
                </extension>
                <extension url="http://nictiz.nl/fhir/StructureDefinition/zib-Medication-CopyIndicator">
                    <valueBoolean value="true"/>
                </extension>
                <identifier>
                    <system value="urn:oid:2.16.840.1.113883.2.4.3.11.999.77.16076005.1"/>
                    <value value="MBH_MO_123_6_MA_1"/>
                </identifier>
                <intent value="order"/>
                <category>
                    <coding>
                        <system value="http://snomed.info/sct"/>
                        <code value="16076005"/>
                        <display value="Prescription (procedure)"/>
                    </coding>
                    <text value="Medicatieafspraak"/>
                </category>
                <medicationReference>
                    <reference value="urn:oid:2.16.840.1.113883.2.4.4.10.67814"/>
                    <display value="Simvastine tablet fo 20 mg"/>
                </medicationReference>
                <subject>
                    <reference value="urn:uuid:47d439dd-d3db-11e9-9443-28f10e481d92"/>
                    <display value="I. XXX_Jangi"/>
                </subject>
                <authoredOn value="${DATE, T, D, -728}T09:13:00+02:00"/>
                <requester>
                    <extension url="http://nictiz.nl/fhir/StructureDefinition/zib-MedicationAgreement-RequesterRole">
                        <valueReference>
                            <reference value="urn:uuid:47d4419e-d3db-11e9-9443-28f10e481d92"/>
                            <display value="John de Vries || Huisartsen, niet nader gespecificeerd || Huisartsenpraktijk Pulver &amp; Partners"/>
                        </valueReference>
                    </extension>
                    <agent>
                        <reference value="urn:uuid:47d4419f-d3db-11e9-9443-28f10e481d92"/>
                        <display value="John de Vries"/>
                    </agent>
                </requester>
                <dosageInstruction>
                    <sequence value="1"/>
                    <text value="Vanaf ${DATE, T, D, -728}, tot nader order, 1 maal per dag 1 tablet 's avonds, oraal"/>
                    <timing>
                        <repeat>
                            <frequency value="1"/>
                            <period value="1"/>
                            <periodUnit value="d"/>
                            <when value="EVE"/>
                        </repeat>
                    </timing>
                    <route>
                        <coding>
                            <system value="urn:oid:2.16.840.1.113883.2.4.4.9"/>
                            <code value="9"/>
                            <display value="oraal"/>
                        </coding>
                    </route>
                    <doseQuantity>
                        <value value="1"/>
                        <unit value="stuk"/>
                        <system value="urn:oid:2.16.840.1.113883.2.4.4.1.900.2"/>
                        <code value="245"/>
                    </doseQuantity>
                </dosageInstruction>
            </MedicationRequest>
        </resource>
    <search>
         <mode value="include"/>
      </search>
   </entry>
    <entry>
        <fullUrl value="urn:uuid:47d44318-d3db-11e9-9443-28f10e481d92"/>
        <resource>
            <MedicationRequest>
                <meta>
                    <profile value="http://nictiz.nl/fhir/StructureDefinition/zib-MedicationAgreement"/>
                </meta>
                <extension url="http://nictiz.nl/fhir/StructureDefinition/zib-Medication-PeriodOfUse">
                    <valuePeriod>
                        <start value="${DATE, T, D, 3}T00:00:00+02:00"/>
                        <end value="${DATE, T, D, 17}T23:59:59+02:00"/>
                    </valuePeriod>
                </extension>
                <extension url="http://nictiz.nl/fhir/StructureDefinition/zib-Medication-MedicationTreatment">
                    <valueIdentifier>
                        <system value="urn:oid:2.16.840.1.113883.2.4.3.11.999.77.1.1"/>
                        <value value="MBH_MO_123_7"/>
                    </valueIdentifier>
                </extension>
                <extension url="http://nictiz.nl/fhir/StructureDefinition/zib-Medication-CopyIndicator">
                    <valueBoolean value="true"/>
                </extension>
                <identifier>
                    <system value="urn:oid:2.16.840.1.113883.2.4.3.11.999.77.16076005.1"/>
                    <value value="MBH_MO_123_7_MA_1"/>
                </identifier>
                <intent value="order"/>
                <category>
                    <coding>
                        <system value="http://snomed.info/sct"/>
                        <code value="16076005"/>
                        <display value="Prescription (procedure)"/>
                    </coding>
                    <text value="Medicatieafspraak"/>
                </category>
                <medicationReference>
                    <reference value="urn:oid:2.16.840.1.113883.2.4.4.10.5274"/>
                    <display value="Flucloxacilline capsule 500mg"/>
                </medicationReference>
                <subject>
                    <reference value="urn:uuid:47d439dd-d3db-11e9-9443-28f10e481d92"/>
                    <display value="I. XXX_Jangi"/>
                </subject>
                <authoredOn value="${DATE, T, D, 3}T09:27:31+02:00"/>
                <requester>
                    <extension url="http://nictiz.nl/fhir/StructureDefinition/zib-MedicationAgreement-RequesterRole">
                        <valueReference>
                            <reference value="urn:uuid:47d4419e-d3db-11e9-9443-28f10e481d92"/>
                            <display value="John de Vries || Huisartsen, niet nader gespecificeerd || Huisartsenpraktijk Pulver &amp; Partners"/>
                        </valueReference>
                    </extension>
                    <agent>
                        <reference value="urn:uuid:47d4419f-d3db-11e9-9443-28f10e481d92"/>
                        <display value="John de Vries"/>
                    </agent>
                </requester>
                <dosageInstruction>
                    <sequence value="1"/>
                    <text value="Vanaf ${DATE, T, D, 3},  tot en met ${DATE, T, D, 17}, Elke 8 uur 1 capsule, oraal"/>
                    <timing>
                        <repeat>
                            <frequency value="1"/>
                            <period value="1"/>
                            <periodUnit value="d"/>
                        </repeat>
                    </timing>
                    <route>
                        <coding>
                            <system value="urn:oid:2.16.840.1.113883.2.4.4.9"/>
                            <code value="9"/>
                            <display value="oraal"/>
                        </coding>
                    </route>
                    <doseQuantity>
                        <value value="1"/>
                        <unit value="stuk"/>
                        <system value="urn:oid:2.16.840.1.113883.2.4.4.1.900.2"/>
                        <code value="245"/>
                    </doseQuantity>
                </dosageInstruction>
            </MedicationRequest>
        </resource>
    <search>
         <mode value="include"/>
      </search>
   </entry>
    <entry>
        <fullUrl value="urn:uuid:47d4436a-d3db-11e9-9443-28f10e481d92"/>
        <resource>
            <MedicationRequest>
                <meta>
                    <profile value="http://nictiz.nl/fhir/StructureDefinition/zib-MedicationAgreement"/>
                </meta>
                <extension url="http://nictiz.nl/fhir/StructureDefinition/zib-Medication-PeriodOfUse">
                    <valuePeriod>
                        <start value="${DATE, T, D, -45}T00:00:00+02:00"/>
                        <end value="${DATE, T, D, -31}T23:59:00+02:00"/>
                    </valuePeriod>
                </extension>
                <extension url="http://nictiz.nl/fhir/StructureDefinition/zib-Medication-MedicationTreatment">
                    <valueIdentifier>
                        <system value="urn:oid:2.16.840.1.113883.2.4.3.11.999.77.1.1"/>
                        <value value="MBH_MO_123_9"/>
                    </valueIdentifier>
                </extension>
                <extension url="http://nictiz.nl/fhir/StructureDefinition/zib-Medication-CopyIndicator">
                    <valueBoolean value="true"/>
                </extension>
                <identifier>
                    <system value="urn:oid:2.16.840.1.113883.2.4.3.11.999.77.16076005.1"/>
                    <value value="MBH_MO_123_9_MA_1"/>
                </identifier>
                <intent value="order"/>
                <category>
                    <coding>
                        <system value="http://snomed.info/sct"/>
                        <code value="16076005"/>
                        <display value="Prescription (procedure)"/>
                    </coding>
                    <text value="Medicatieafspraak"/>
                </category>
                <medicationReference>
                    <reference value="urn:oid:2.16.840.1.113883.2.4.4.10.5274"/>
                    <display value="FLUCLOXACILLINE CAPSULE 500MG"/>
                </medicationReference>
                <subject>
                    <reference value="urn:uuid:47d439dd-d3db-11e9-9443-28f10e481d92"/>
                    <display value="I. XXX_Jangi"/>
                </subject>
                <authoredOn value="${DATE, T, D, -45}T11:50:00+02:00"/>
                <requester>
                    <extension url="http://nictiz.nl/fhir/StructureDefinition/zib-MedicationAgreement-RequesterRole">
                        <valueReference>
                            <reference value="urn:uuid:47d4419e-d3db-11e9-9443-28f10e481d92"/>
                            <display value="John de Vries || Huisartsen, niet nader gespecificeerd || Huisartsenpraktijk Pulver &amp; Partners"/>
                        </valueReference>
                    </extension>
                    <agent>
                        <reference value="urn:uuid:47d4419f-d3db-11e9-9443-28f10e481d92"/>
                        <display value="John de Vries"/>
                    </agent>
                </requester>
                <dosageInstruction>
                    <sequence value="1"/>
                    <text value="Vanaf ${DATE, T, D, -45},  tot en met ${DATE, T, D, -31}, 1 keer per exact 8 uur 1 stuk, oraal"/>
                    <timing>
                        <repeat>
                            <period value="8"/>
                            <periodUnit value="h"/>
                        </repeat>
                    </timing>
                    <route>
                        <coding>
                            <system value="urn:oid:2.16.840.1.113883.2.4.4.9"/>
                            <code value="9"/>
                            <display value="oraal"/>
                        </coding>
                    </route>
                    <doseQuantity>
                        <value value="1"/>
                        <unit value="stuk"/>
                        <system value="urn:oid:2.16.840.1.113883.2.4.4.1.900.2"/>
                        <code value="245"/>
                    </doseQuantity>
                </dosageInstruction>
            </MedicationRequest>
        </resource>
    <search>
         <mode value="include"/>
      </search>
   </entry>
     <entry>
        <fullUrl value="urn:uuid:47d43e4b-d3db-11e9-9443-28f10e481d92"/>
        <resource>
            <MedicationDispense>
                <meta>
                    <profile value="http://nictiz.nl/fhir/StructureDefinition/zib-AdministrationAgreement"/>
                </meta>
                <extension url="http://nictiz.nl/fhir/StructureDefinition/zib-AdministrationAgreement-AuthoredOn">
                    <valueDateTime value="${DATE, T, D, -6}T11:55:00+02:00"/>
                </extension>
                <extension url="http://nictiz.nl/fhir/StructureDefinition/zib-Medication-PeriodOfUse">
                    <valuePeriod>
                        <start value="${DATE, T, D, -6}T00:00:00+02:00"/>
                    </valuePeriod>
                </extension>
                <extension url="http://nictiz.nl/fhir/StructureDefinition/zib-Medication-MedicationTreatment">
                    <valueIdentifier>
                        <system value="urn:oid:2.16.840.1.113883.2.4.3.11.999.77.1.1"/>
                        <value value="MBH_MO_123_2"/>
                    </valueIdentifier>
                </extension>
                <identifier>
                    <system value="urn:oid:2.16.840.1.113883.2.4.3.11.999.77.422037009.1"/>
                    <value value="MBH_MO_123_2_TA_1"/>
                </identifier>
                <category>
                    <coding>
                        <system value="http://snomed.info/sct"/>
                        <code value="422037009"/>
                        <display value="Provider medication administration instructions (procedure)"/>
                    </coding>
                    <text value="Toedieningsafspraak"/>
                </category>
                <medicationReference>
                    <reference value="urn:oid:2.16.840.1.113883.2.4.4.7.400629"/>
                    <display value="Emovate zalf 0,5 mg/g"/>
                </medicationReference>
                <subject>
                    <reference value="urn:uuid:47d439dd-d3db-11e9-9443-28f10e481d92"/>
                    <display value="I. XXX_Jangi"/>
                </subject>
                <performer>
                    <actor>
                        <reference value="urn:oid:2.16.528.1.1007.3.3.1236578"/>
                        <display value="Apotheek De Gulle Gaper"/>
                    </actor>
                </performer>
                <note>
                    <text value="Eczeem oogleden"/>
                </note>
                <dosageInstruction>
                    <sequence value="1"/>
                    <text value="Vanaf ${DATE, T, D, -6}, tot nader order, eerst 2 maal per dag zalf gedurende 7 dagen, daarna 1 maal per dag zalf gedurende 7 dagen, daarna 3 maal per week zalf gedurende 7 dagen, cutaan"/>
                    <timing>
                        <repeat>
                            <boundsDuration>
                                <value value="7"/>
                                <unit value="dag"/>
                                <system value="http://unitsofmeasure.org"/>
                                <code value="d"/>
                            </boundsDuration>
                            <frequency value="2"/>
                            <period value="1"/>
                            <periodUnit value="d"/>
                        </repeat>
                    </timing>
                    <route>
                        <coding>
                            <system value="urn:oid:2.16.840.1.113883.2.4.4.9"/>
                            <code value="53"/>
                            <display value="cutaan"/>
                        </coding>
                    </route>
                </dosageInstruction>
                <dosageInstruction>
                    <sequence value="2"/>
                    <text value="Vanaf ${DATE, T, D, -6}, tot nader order, eerst 2 maal per dag zalf gedurende 7 dagen, daarna 1 maal per dag zalf gedurende 7 dagen, daarna 3 maal per week zalf gedurende 7 dagen, cutaan"/>
                    <timing>
                        <repeat>
                            <boundsDuration>
                                <value value="7"/>
                                <unit value="dag"/>
                                <system value="http://unitsofmeasure.org"/>
                                <code value="d"/>
                            </boundsDuration>
                            <frequency value="1"/>
                            <period value="1"/>
                            <periodUnit value="d"/>
                        </repeat>
                    </timing>
                    <route>
                        <coding>
                            <system value="urn:oid:2.16.840.1.113883.2.4.4.9"/>
                            <code value="53"/>
                            <display value="cutaan"/>
                        </coding>
                    </route>
                </dosageInstruction>
                <dosageInstruction>
                    <sequence value="3"/>
                    <text value="Vanaf ${DATE, T, D, -6}, tot nader order, eerst 2 maal per dag zalf gedurende 7 dagen, daarna 1 maal per dag zalf gedurende 7 dagen, daarna 3 maal per week zalf gedurende 7 dagen, cutaan"/>
                    <timing>
                        <repeat>
                            <boundsDuration>
                                <value value="7"/>
                                <unit value="dag"/>
                                <system value="http://unitsofmeasure.org"/>
                                <code value="d"/>
                            </boundsDuration>
                            <frequency value="3"/>
                            <period value="1"/>
                            <periodUnit value="wk"/>
                        </repeat>
                    </timing>
                    <route>
                        <coding>
                            <system value="urn:oid:2.16.840.1.113883.2.4.4.9"/>
                            <code value="53"/>
                            <display value="cutaan"/>
                        </coding>
                    </route>
                </dosageInstruction>
            </MedicationDispense>
        </resource>
    <search>
         <mode value="include"/>
      </search>
   </entry>
    <entry>
        <fullUrl value="urn:uuid:47d441c8-d3db-11e9-9443-28f10e481d92"/>
        <resource>
            <MedicationDispense>
                <meta>
                    <profile value="http://nictiz.nl/fhir/StructureDefinition/zib-AdministrationAgreement"/>
                </meta>
                <extension url="http://nictiz.nl/fhir/StructureDefinition/zib-AdministrationAgreement-AuthoredOn">
                    <valueDateTime value="${DATE, T, D, -14}T15:55:00+02:00"/>
                </extension>
                <extension url="http://nictiz.nl/fhir/StructureDefinition/zib-Medication-PeriodOfUse">
                    <valuePeriod>
                        <start value="${DATE, T, D, -14}T00:00:00+02:00"/>
                        <end value="${DATE, T, D, 13}T23:59:59+02:00"/>
                    </valuePeriod>
                </extension>
                <extension url="http://nictiz.nl/fhir/StructureDefinition/zib-Medication-MedicationTreatment">
                    <valueIdentifier>
                        <system value="urn:oid:2.16.840.1.113883.2.4.3.11.999.77.1.1"/>
                        <value value="MBH_MO_123_3"/>
                    </valueIdentifier>
                </extension>
                <identifier>
                    <system value="urn:oid:2.16.840.1.113883.2.4.3.11.999.77.422037009.1"/>
                    <value value="MBH_MO_123_3_TA_1"/>
                </identifier>
                <category>
                    <coding>
                        <system value="http://snomed.info/sct"/>
                        <code value="422037009"/>
                        <display value="Provider medication administration instructions (procedure)"/>
                    </coding>
                    <text value="Toedieningsafspraak"/>
                </category>
                <medicationReference>
                    <reference value="urn:oid:2.16.840.1.113883.2.4.4.7.1753029"/>
                    <display value="Glimepiride activis tablet 3mg"/>
                </medicationReference>
                <subject>
                    <reference value="urn:uuid:47d439dd-d3db-11e9-9443-28f10e481d92"/>
                    <display value="I. XXX_Jangi"/>
                </subject>
                <performer>
                    <actor>
                        <reference value="urn:oid:2.16.528.1.1007.3.3.1236578"/>
                        <display value="Apotheek De Gulle Gaper"/>
                    </actor>
                </performer>
                <authorizingPrescription>
                    <identifier>
                        <system value="urn:oid:2.16.840.1.113883.2.4.3.11.999.77.16076005.1"/>
                        <value value="MBH_MO_123_3_MA_1"/>
                    </identifier>
                    <display value="relatie naar medicatieafspraak: MBH_MO_123_3_MA_1 || 2.16.840.1.113883.2.4.3.11.999.77.16076005.1"/>
                </authorizingPrescription>
                <dosageInstruction>
                    <sequence value="1"/>
                    <text value="Vanaf ${DATE, T, D, -14},  tot en met ${DATE, T, D, 13}, 1 maal per dag 2 tabletten, oraal"/>
                    <timing>
                        <repeat>
                            <frequency value="1"/>
                            <period value="1"/>
                            <periodUnit value="d"/>
                        </repeat>
                    </timing>
                    <route>
                        <coding>
                            <system value="urn:oid:2.16.840.1.113883.2.4.4.9"/>
                            <code value="9"/>
                            <display value="oraal"/>
                        </coding>
                    </route>
                    <doseQuantity>
                        <value value="2"/>
                        <unit value="stuk"/>
                        <system value="urn:oid:2.16.840.1.113883.2.4.4.1.900.2"/>
                        <code value="245"/>
                    </doseQuantity>
                </dosageInstruction>
            </MedicationDispense>
        </resource>
    <search>
         <mode value="include"/>
      </search>
   </entry>
     <entry>
        <fullUrl value="urn:uuid:47d4422b-d3db-11e9-9443-28f10e481d92"/>
        <resource>
            <MedicationDispense>
                <meta>
                    <profile value="http://nictiz.nl/fhir/StructureDefinition/zib-AdministrationAgreement"/>
                </meta>
                <extension url="http://nictiz.nl/fhir/StructureDefinition/zib-AdministrationAgreement-AuthoredOn">
                    <valueDateTime value="${DATE, T, D, -60}T15:55:00+02:00"/>
                </extension>
                <extension url="http://nictiz.nl/fhir/StructureDefinition/zib-Medication-PeriodOfUse">
                    <valuePeriod>
                        <start value="${DATE, T, D, -60}T00:00:00+02:00"/>
                    </valuePeriod>
                </extension>
                <extension url="http://nictiz.nl/fhir/StructureDefinition/zib-Medication-MedicationTreatment">
                    <valueIdentifier>
                        <system value="urn:oid:2.16.840.1.113883.2.4.3.11.999.77.1.1"/>
                        <value value="MBH_MO_123_4"/>
                    </valueIdentifier>
                </extension>
                <extension url="http://nictiz.nl/fhir/StructureDefinition/zib-Medication-CopyIndicator">
                    <valueBoolean value="true"/>
                </extension>
                <identifier>
                    <system value="urn:oid:2.16.840.1.113883.2.4.3.11.999.77.422037009.1"/>
                    <value value="MBH_MO_123_4_TA_1"/>
                </identifier>
                <category>
                    <coding>
                        <system value="http://snomed.info/sct"/>
                        <code value="422037009"/>
                        <display value="Provider medication administration instructions (procedure)"/>
                    </coding>
                    <text value="Toedieningsafspraak"/>
                </category>
                <medicationReference>
                    <reference value="urn:oid:2.16.840.1.113883.2.4.4.7.1859226"/>
                    <display value="LANTUS SOLOSTAR INJ 100E/ML PEN 3ML"/>
                </medicationReference>
                <subject>
                    <reference value="urn:uuid:47d439dd-d3db-11e9-9443-28f10e481d92"/>
                    <display value="I. XXX_Jangi"/>
                </subject>
                <performer>
                    <actor>
                        <reference value="urn:oid:2.16.528.1.1007.3.3.13336578"/>
                        <display value="Poliapotheek Antonius"/>
                    </actor>
                </performer>
                <authorizingPrescription>
                    <identifier>
                        <system value="urn:oid:2.16.840.1.113883.2.4.3.11.999.77.16076005.1"/>
                        <value value="MBH_MO_123_4_MA_1"/>
                    </identifier>
                    <display value="relatie naar medicatieafspraak: MBH_MO_123_4_MA_1 || 2.16.840.1.113883.2.4.3.11.999.77.16076005.1"/>
                </authorizingPrescription>
                <dosageInstruction>
                    <sequence value="1"/>
                    <text value="Vanaf ${DATE, T, D, -60}, tot nader order, Elke dag om 9 uur 10IE, subcutaan"/>
                    <timing>
                        <repeat>
                            <timeOfDay value="09:00:00"/>
                        </repeat>
                    </timing>
                    <route>
                        <coding>
                            <system value="urn:oid:2.16.840.1.113883.2.4.4.9"/>
                            <code value="21"/>
                            <display value="subcutaan"/>
                        </coding>
                    </route>
                    <doseQuantity>
                        <value value="10"/>
                        <unit value="internationale eenheid"/>
                        <system value="urn:oid:2.16.840.1.113883.2.4.4.1.900.2"/>
                        <code value="217"/>
                    </doseQuantity>
                </dosageInstruction>
            </MedicationDispense>
        </resource>
    <search>
         <mode value="include"/>
      </search>
   </entry>
    <entry>
        <fullUrl value="urn:uuid:47d44249-d3db-11e9-9443-28f10e481d92"/>
        <resource>
            <MedicationDispense>
                <meta>
                    <profile value="http://nictiz.nl/fhir/StructureDefinition/zib-AdministrationAgreement"/>
                </meta>
                <extension url="http://nictiz.nl/fhir/StructureDefinition/zib-AdministrationAgreement-AuthoredOn">
                    <valueDateTime value="${DATE, T, D, -36}T15:55:00+02:00"/>
                </extension>
                <extension url="http://nictiz.nl/fhir/StructureDefinition/zib-Medication-PeriodOfUse">
                    <valuePeriod>
                        <start value="${DATE, T, D, -36}T00:00:00+02:00"/>
                    </valuePeriod>
                </extension>
                <extension url="http://nictiz.nl/fhir/StructureDefinition/zib-MedicationUse-Duration">
                    <valueDuration>
                        <value value="90"/>
                        <unit value="dag"/>
                        <system value="http://unitsofmeasure.org"/>
                        <code value="d"/>
                    </valueDuration>
                </extension>
                <extension url="http://nictiz.nl/fhir/StructureDefinition/zib-Medication-MedicationTreatment">
                    <valueIdentifier>
                        <system value="urn:oid:2.16.840.1.113883.2.4.3.11.999.77.1.1"/>
                        <value value="MBH_MO_123_5"/>
                    </valueIdentifier>
                </extension>
                <extension url="http://nictiz.nl/fhir/StructureDefinition/zib-Medication-CopyIndicator">
                    <valueBoolean value="true"/>
                </extension>
                <identifier>
                    <system value="urn:oid:2.16.840.1.113883.2.4.3.11.999.77.422037009.1"/>
                    <value value="MBH_MO_123_5_TA_1"/>
                </identifier>
                <category>
                    <coding>
                        <system value="http://snomed.info/sct"/>
                        <code value="422037009"/>
                        <display value="Provider medication administration instructions (procedure)"/>
                    </coding>
                    <text value="Toedieningsafspraak"/>
                </category>
                <medicationReference>
                    <reference value="urn:oid:2.16.840.1.113883.2.4.4.7.2105594"/>
                    <display value="PERINDOPRIL TERT-BUTYLAMINE GLENMARK TABLET 8MG"/>
                </medicationReference>
                <subject>
                    <reference value="urn:uuid:47d439dd-d3db-11e9-9443-28f10e481d92"/>
                    <display value="I. XXX_Jangi"/>
                </subject>
                <performer>
                    <actor>
                        <reference value="urn:oid:2.16.528.1.1007.3.3.13336578"/>
                        <display value="Poliapotheek Antonius"/>
                    </actor>
                </performer>
                <dosageInstruction>
                    <sequence value="1"/>
                    <text value="Vanaf ${DATE, T, D, -36}, gedurende 90 dagen, 1 maal per dag 1 tablet, oraal"/>
                    <timing>
                        <repeat>
                            <frequency value="1"/>
                            <period value="1"/>
                            <periodUnit value="d"/>
                        </repeat>
                    </timing>
                    <route>
                        <coding>
                            <system value="urn:oid:2.16.840.1.113883.2.4.4.9"/>
                            <code value="9"/>
                            <display value="oraal"/>
                        </coding>
                    </route>
                    <doseQuantity>
                        <value value="1"/>
                        <unit value="stuk"/>
                        <system value="urn:oid:2.16.840.1.113883.2.4.4.1.900.2"/>
                        <code value="245"/>
                    </doseQuantity>
                </dosageInstruction>
            </MedicationDispense>
        </resource>
    <search>
         <mode value="include"/>
      </search>
   </entry>
    <entry>
        <fullUrl value="urn:uuid:47d442ac-d3db-11e9-9443-28f10e481d92"/>
        <resource>
            <MedicationDispense>
                <meta>
                    <profile value="http://nictiz.nl/fhir/StructureDefinition/zib-AdministrationAgreement"/>
                </meta>
                <extension url="http://nictiz.nl/fhir/StructureDefinition/zib-AdministrationAgreement-AuthoredOn">
                    <valueDateTime value="${DATE, T, D, -323}T15:55:00+02:00"/>
                </extension>
                <extension url="http://nictiz.nl/fhir/StructureDefinition/zib-Medication-PeriodOfUse">
                    <valuePeriod>
                        <start value="${DATE, T, D, -323}T00:00:00+02:00"/>
                    </valuePeriod>
                </extension>
                <extension url="http://nictiz.nl/fhir/StructureDefinition/zib-Medication-MedicationTreatment">
                    <valueIdentifier>
                        <system value="urn:oid:2.16.840.1.113883.2.4.3.11.999.77.1.1"/>
                        <value value="MBH_MO_123_6"/>
                    </valueIdentifier>
                </extension>
                <extension url="http://nictiz.nl/fhir/StructureDefinition/zib-Medication-CopyIndicator">
                    <valueBoolean value="true"/>
                </extension>
                <identifier>
                    <system value="urn:oid:2.16.840.1.113883.2.4.3.11.999.77.422037009.1"/>
                    <value value="MBH_MO_123_6_TA_1"/>
                </identifier>
                <category>
                    <coding>
                        <system value="http://snomed.info/sct"/>
                        <code value="422037009"/>
                        <display value="Provider medication administration instructions (procedure)"/>
                    </coding>
                    <text value="Toedieningsafspraak"/>
                </category>
                <medicationReference>
                    <reference value="urn:oid:2.16.840.1.113883.2.4.4.7.1537792"/>
                    <display value="SIMVASTATINE APOTEX TABLET FILMOMHULD 10MG"/>
                </medicationReference>
                <subject>
                    <reference value="urn:uuid:47d439dd-d3db-11e9-9443-28f10e481d92"/>
                    <display value="I. XXX_Jangi"/>
                </subject>
                <performer>
                    <actor>
                        <reference value="urn:oid:2.16.528.1.1007.3.3.13336578"/>
                        <display value="Poliapotheek Antonius"/>
                    </actor>
                </performer>
                <authorizingPrescription>
                    <identifier>
                        <system value="urn:oid:2.16.840.1.113883.2.4.3.11.999.77.16076005.1"/>
                        <value value="MBH_MO_123_6_MA_1"/>
                    </identifier>
                    <display value="relatie naar medicatieafspraak: MBH_MO_123_6_MA_1 || 2.16.840.1.113883.2.4.3.11.999.77.16076005.1"/>
                </authorizingPrescription>
                <dosageInstruction>
                    <sequence value="1"/>
                    <text value="Vanaf ${DATE, T, D, -323}, tot nader order, 1 maal per dag 2 tabletten 's avonds, oraal"/>
                    <timing>
                        <repeat>
                            <frequency value="1"/>
                            <period value="1"/>
                            <periodUnit value="d"/>
                            <when value="EVE"/>
                        </repeat>
                    </timing>
                    <route>
                        <coding>
                            <system value="urn:oid:2.16.840.1.113883.2.4.4.9"/>
                            <code value="9"/>
                            <display value="oraal"/>
                        </coding>
                    </route>
                    <doseQuantity>
                        <value value="2"/>
                        <unit value="stuk"/>
                        <system value="urn:oid:2.16.840.1.113883.2.4.4.1.900.2"/>
                        <code value="245"/>
                    </doseQuantity>
                </dosageInstruction>
            </MedicationDispense>
        </resource>
    <search>
         <mode value="include"/>
      </search>
   </entry>
    <entry>
        <fullUrl value="urn:uuid:47d44345-d3db-11e9-9443-28f10e481d92"/>
        <resource>
            <MedicationDispense>
                <meta>
                    <profile value="http://nictiz.nl/fhir/StructureDefinition/zib-AdministrationAgreement"/>
                </meta>
                <extension url="http://nictiz.nl/fhir/StructureDefinition/zib-AdministrationAgreement-AuthoredOn">
                    <valueDateTime value="${DATE, T, D, -28}T11:50:00+02:00"/>
                </extension>
                <extension url="http://nictiz.nl/fhir/StructureDefinition/zib-AdministrationAgreement-AgreementReason">
                    <valueString value="Beleidswijziging"/>
                </extension>
                <extension url="http://nictiz.nl/fhir/StructureDefinition/zib-Medication-PeriodOfUse">
                    <valuePeriod>
                        <start value="${DATE, T, D, -45}T00:00:00+02:00"/>
                        <end value="${DATE, T, D, -29}T23:59:00+02:00"/>
                    </valuePeriod>
                </extension>
                <extension url="http://nictiz.nl/fhir/StructureDefinition/zib-Medication-MedicationTreatment">
                    <valueIdentifier>
                        <system value="urn:oid:2.16.840.1.113883.2.4.3.11.999.77.1.1"/>
                        <value value="MBH_MO_123_8"/>
                    </valueIdentifier>
                </extension>
                <extension url="http://nictiz.nl/fhir/StructureDefinition/zib-Medication-CopyIndicator">
                    <valueBoolean value="true"/>
                </extension>
                <modifierExtension url="http://nictiz.nl/fhir/StructureDefinition/zib-Medication-StopType">
                    <valueCodeableConcept>
                        <coding>
                            <system value="urn:oid:2.16.840.1.113883.2.4.3.11.60.20.77.5.2.1"/>
                            <code value="1"/>
                            <display value="Onderbreking"/>
                        </coding>
                    </valueCodeableConcept>
                </modifierExtension>
                <identifier>
                    <system value="urn:oid:2.16.840.1.113883.2.4.3.11.999.77.422037009.1"/>
                    <value value="MBH_MO_123_8_TA_2"/>
                </identifier>
                <category>
                    <coding>
                        <system value="http://snomed.info/sct"/>
                        <code value="422037009"/>
                        <display value="Provider medication administration instructions (procedure)"/>
                    </coding>
                    <text value="Toedieningsafspraak"/>
                </category>
                <medicationReference>
                    <reference value="urn:oid:2.16.840.1.113883.2.4.4.7.2230879"/>
                    <display value="Atorvastatine ranbaxy tablet filmomhuld 40 mg"/>
                </medicationReference>
                <subject>
                    <reference value="urn:uuid:47d439dd-d3db-11e9-9443-28f10e481d92"/>
                    <display value="I. XXX_Jangi"/>
                </subject>
                <performer>
                    <actor>
                        <reference value="urn:oid:2.16.528.1.1007.3.3.13336578"/>
                        <display value="Poliapotheek Antonius"/>
                    </actor>
                </performer>
                <authorizingPrescription>
                    <identifier>
                        <system value="urn:oid:2.16.840.1.113883.2.4.3.11.999.77.16076005.1"/>
                        <value value="MBH_MO_123_8_MA_3"/>
                    </identifier>
                    <display value="relatie naar medicatieafspraak: MBH_MO_123_8_MA_3 || 2.16.840.1.113883.2.4.3.11.999.77.16076005.1"/>
                </authorizingPrescription>
                <dosageInstruction>
                    <sequence value="1"/>
                    <text value="Vanaf ${DATE, T, D, -45},  tot en met ${DATE, T, D, -29}, 1 maal per dag 2 tabletten 's avonds, oraal"/>
                    <timing>
                        <repeat>
                            <frequency value="1"/>
                            <period value="1"/>
                            <periodUnit value="d"/>
                            <when value="EVE"/>
                        </repeat>
                    </timing>
                    <route>
                        <coding>
                            <system value="urn:oid:2.16.840.1.113883.2.4.4.9"/>
                            <code value="9"/>
                            <display value="oraal"/>
                        </coding>
                    </route>
                    <doseQuantity>
                        <value value="2"/>
                        <unit value="stuk"/>
                        <system value="urn:oid:2.16.840.1.113883.2.4.4.1.900.2"/>
                        <code value="245"/>
                    </doseQuantity>
                </dosageInstruction>
            </MedicationDispense>
        </resource>
    <search>
         <mode value="include"/>
      </search>
   </entry>
    <entry>
        <fullUrl value="urn:uuid:47d44394-d3db-11e9-9443-28f10e481d92"/>
        <resource>
            <MedicationDispense>
                <meta>
                    <profile value="http://nictiz.nl/fhir/StructureDefinition/zib-AdministrationAgreement"/>
                </meta>
                <extension url="http://nictiz.nl/fhir/StructureDefinition/zib-AdministrationAgreement-AuthoredOn">
                    <valueDateTime value="${DATE, T, D, -36}T15:50:00+02:00"/>
                </extension>
                <extension url="http://nictiz.nl/fhir/StructureDefinition/zib-AdministrationAgreement-AgreementReason">
                    <valueString value="Geen of onvoldoende effect"/>
                </extension>
                <extension url="http://nictiz.nl/fhir/StructureDefinition/zib-Medication-PeriodOfUse">
                    <valuePeriod>
                        <start value="${DATE, T, D, -56}T00:00:00+02:00"/>
                        <end value="${DATE, T, D, -37}T23:59:00+02:00"/>
                    </valuePeriod>
                </extension>
                <extension url="http://nictiz.nl/fhir/StructureDefinition/zib-Medication-MedicationTreatment">
                    <valueIdentifier>
                        <system value="urn:oid:2.16.840.1.113883.2.4.3.11.999.77.1.1"/>
                        <value value="MBH_MO_123_10"/>
                    </valueIdentifier>
                </extension>
                <extension url="http://nictiz.nl/fhir/StructureDefinition/zib-Medication-CopyIndicator">
                    <valueBoolean value="true"/>
                </extension>
                <modifierExtension url="http://nictiz.nl/fhir/StructureDefinition/zib-Medication-StopType">
                    <valueCodeableConcept>
                        <coding>
                            <system value="urn:oid:2.16.840.1.113883.2.4.3.11.60.20.77.5.2.1"/>
                            <code value="2"/>
                            <display value="Staking"/>
                        </coding>
                    </valueCodeableConcept>
                </modifierExtension>
                <identifier>
                    <system value="urn:oid:2.16.840.1.113883.2.4.3.11.999.77.422037009.1"/>
                    <value value="MBH_MO_123_10_TA_2"/>
                </identifier>
                <category>
                    <coding>
                        <system value="http://snomed.info/sct"/>
                        <code value="422037009"/>
                        <display value="Provider medication administration instructions (procedure)"/>
                    </coding>
                    <text value="Toedieningsafspraak"/>
                </category>
                <medicationReference>
                    <reference value="urn:oid:2.16.840.1.113883.2.4.4.7.2105586"/>
                    <display value="PERINDOPRIL TERT-BUTYLAMINE GLENMARK TABLET 4MG"/>
                </medicationReference>
                <subject>
                    <reference value="urn:uuid:47d439dd-d3db-11e9-9443-28f10e481d92"/>
                    <display value="I. XXX_Jangi"/>
                </subject>
                <performer>
                    <actor>
                        <reference value="urn:oid:2.16.528.1.1007.3.3.13336578"/>
                        <display value="Poliapotheek Antonius"/>
                    </actor>
                </performer>
                <dosageInstruction>
                    <sequence value="1"/>
                    <text value="Vanaf ${DATE, T, D, -56},  tot en met ${DATE, T, D, -37}, 1 maal per dag 1 tablet 's morgens, oraal"/>
                    <timing>
                        <repeat>
                            <frequency value="1"/>
                            <period value="1"/>
                            <periodUnit value="d"/>
                            <when value="MORN"/>
                        </repeat>
                    </timing>
                    <route>
                        <coding>
                            <system value="urn:oid:2.16.840.1.113883.2.4.4.9"/>
                            <code value="9"/>
                            <display value="oraal"/>
                        </coding>
                    </route>
                    <doseQuantity>
                        <value value="1"/>
                        <unit value="stuk"/>
                        <system value="urn:oid:2.16.840.1.113883.2.4.4.1.900.2"/>
                        <code value="245"/>
                    </doseQuantity>
                </dosageInstruction>
            </MedicationDispense>
        </resource>
    <search>
         <mode value="include"/>
      </search>
   </entry>
    <entry>
        <fullUrl value="urn:uuid:47d43e2d-d3db-11e9-9443-28f10e481d92"/>
        <resource>
            <MedicationStatement>
                <meta>
                    <profile value="http://nictiz.nl/fhir/StructureDefinition/zib-MedicationUse"/>
                </meta>
                <extension url="http://nictiz.nl/fhir/StructureDefinition/zib-MedicationUse-Author">
                    <valueReference>
                        <reference value="urn:uuid:47d439dd-d3db-11e9-9443-28f10e481d92"/>
                        <display value="I. XXX_Jangi"/>
                    </valueReference>
                </extension>
                <extension url="http://nictiz.nl/fhir/StructureDefinition/zib-Medication-MedicationTreatment">
                    <valueIdentifier>
                        <system value="urn:oid:2.16.840.1.113883.2.4.3.11.999.77.1.1"/>
                        <value value="MBH_MO_123_1"/>
                    </valueIdentifier>
                </extension>
                <extension url="http://nictiz.nl/fhir/StructureDefinition/zib-Medication-CopyIndicator">
                    <valueBoolean value="true"/>
                </extension>
                <identifier>
                    <system value="urn:oid:2.16.840.1.113883.2.4.3.11.999.77.6.1"/>
                    <value value="MBH_MO_123_1_MGB_1"/>
                </identifier>
                <status value="active"/>
                <category>
                    <coding>
                        <system value="urn:oid:2.16.840.1.113883.2.4.3.11.60.20.77.5.3"/>
                        <code value="6"/>
                        <display value="Medicatiegebruik"/>
                    </coding>
                    <text value="Medicatiegebruik"/>
                </category>
                <medicationReference>
                    <reference value="urn:uuid:47d43e32-d3db-11e9-9443-28f10e481d92"/>
                    <display value="Ibuprofen"/>
                </medicationReference>
                <effectivePeriod>
                    <extension url="http://nictiz.nl/fhir/StructureDefinition/zib-MedicationUse-Duration">
                        <valueDuration>
                            <value value="3"/>
                            <unit value="dag"/>
                            <system value="http://unitsofmeasure.org"/>
                            <code value="d"/>
                        </valueDuration>
                    </extension>
                    <start value="${DATE, T, D, -3}T00:00:00+02:00"/>
                </effectivePeriod>
                <dateAsserted value="${DATE, T, D, -0}T10:57:00+02:00"/>
                <subject>
                    <reference value="urn:uuid:47d439dd-d3db-11e9-9443-28f10e481d92"/>
                    <display value="I. XXX_Jangi"/>
                </subject>
                <taken value="y"/>
                <note>
                    <text value="Pijn"/>
                </note>
                <dosage>
                    <text value="Vanaf ${DATE, T, D, -3}, gedurende 3 dagen, 4 maal per dag 1 tablet, oraal"/>
                    <timing>
                        <repeat>
                            <frequency value="4"/>
                            <period value="1"/>
                            <periodUnit value="d"/>
                        </repeat>
                    </timing>
                    <route>
                        <coding>
                            <system value="urn:oid:2.16.840.1.113883.2.4.4.9"/>
                            <code value="9"/>
                            <display value="oraal"/>
                        </coding>
                    </route>
                    <doseQuantity>
                        <value value="1"/>
                        <unit value="stuk"/>
                        <system value="urn:oid:2.16.840.1.113883.2.4.4.1.900.2"/>
                        <code value="245"/>
                    </doseQuantity>
                </dosage>
            </MedicationStatement>
        </resource>
    <search>
         <mode value="include"/>
      </search>
   </entry>
    <entry>
        <fullUrl value="urn:uuid:47d441e7-d3db-11e9-9443-28f10e481d92"/>
        <resource>
            <MedicationStatement>
                <meta>
                    <profile value="http://nictiz.nl/fhir/StructureDefinition/zib-MedicationUse"/>
                </meta>
                <extension url="http://nictiz.nl/fhir/StructureDefinition/zib-MedicationUse-Author">
                    <valueReference>
                        <reference value="urn:uuid:47d439dd-d3db-11e9-9443-28f10e481d92"/>
                        <display value="I. XXX_Jangi"/>
                    </valueReference>
                </extension>
                <extension url="http://nictiz.nl/fhir/StructureDefinition/zib-Medication-MedicationTreatment">
                    <valueIdentifier>
                        <system value="urn:oid:2.16.840.1.113883.2.4.3.11.999.77.1.1"/>
                        <value value="MBH_MO_123_3"/>
                    </valueIdentifier>
                </extension>
                <extension url="http://nictiz.nl/fhir/StructureDefinition/zib-Medication-CopyIndicator">
                    <valueBoolean value="true"/>
                </extension>
                <identifier>
                    <system value="urn:oid:2.16.840.1.113883.2.4.3.11.999.77.6.1"/>
                    <value value="MBH_MO_123_3_MGB_1"/>
                </identifier>
                <status value="active"/>
                <category>
                    <coding>
                        <system value="urn:oid:2.16.840.1.113883.2.4.3.11.60.20.77.5.3"/>
                        <code value="6"/>
                        <display value="Medicatiegebruik"/>
                    </coding>
                    <text value="Medicatiegebruik"/>
                </category>
                <medicationReference>
                    <reference value="urn:uuid:47d441eb-d3db-11e9-9443-28f10e481d92"/>
                    <display value="Glimepiride"/>
                </medicationReference>
                <effectivePeriod>
                    <start value="${DATE, T, D, -10}T00:00:00+02:00"/>
                    <end value="${DATE, T, D, 1}T23:59:59+02:00"/>
                </effectivePeriod>
                <dateAsserted value="${DATE, T, D, -0}T12:58:00+02:00"/>
                <subject>
                    <reference value="urn:uuid:47d439dd-d3db-11e9-9443-28f10e481d92"/>
                    <display value="I. XXX_Jangi"/>
                </subject>
                <taken value="y"/>
                <dosage>
                    <text value="Vanaf ${DATE, T, D, -10},  tot en met ${DATE, T, D, 1}, 1 maal per dag 1 tablet"/>
                    <timing>
                        <repeat>
                            <frequency value="1"/>
                            <period value="1"/>
                            <periodUnit value="d"/>
                        </repeat>
                    </timing>
                    <doseQuantity>
                        <value value="1"/>
                        <unit value="stuk"/>
                        <system value="urn:oid:2.16.840.1.113883.2.4.4.1.900.2"/>
                        <code value="245"/>
                    </doseQuantity>
                </dosage>
            </MedicationStatement>
        </resource>
    <search>
         <mode value="include"/>
      </search>
   </entry>
    <entry>
        <fullUrl value="urn:uuid:47d44269-d3db-11e9-9443-28f10e481d92"/>
        <resource>
            <MedicationStatement>
                <meta>
                    <profile value="http://nictiz.nl/fhir/StructureDefinition/zib-MedicationUse"/>
                </meta>
                <extension url="http://nictiz.nl/fhir/StructureDefinition/zib-MedicationUse-AsAgreedIndicator">
                    <valueBoolean value="false"/>
                </extension>
                <extension url="http://nictiz.nl/fhir/StructureDefinition/zib-MedicationUse-Author">
                    <valueReference>
                        <reference value="urn:uuid:47d439dd-d3db-11e9-9443-28f10e481d92"/>
                        <display value="I. XXX_Jangi"/>
                    </valueReference>
                </extension>
                <extension url="http://nictiz.nl/fhir/StructureDefinition/zib-Medication-MedicationTreatment">
                    <valueIdentifier>
                        <system value="urn:oid:2.16.840.1.113883.2.4.3.11.999.77.1.1"/>
                        <value value="MBH_MO_123_5"/>
                    </valueIdentifier>
                </extension>
                <extension url="http://nictiz.nl/fhir/StructureDefinition/zib-Medication-CopyIndicator">
                    <valueBoolean value="true"/>
                </extension>
                <extension url="http://nictiz.nl/fhir/StructureDefinition/zib-MedicationUse-ReasonForChangeOrDiscontinuationOfUse">
                    <valueCodeableConcept>
                        <coding>
                            <system value="urn:oid:2.16.840.1.113883.2.4.3.11.60.20.77.5.2.2"/>
                            <code value="6"/>
                            <display value="Te sterk effect"/>
                        </coding>
                    </valueCodeableConcept>
                </extension>
                <identifier>
                    <system value="urn:oid:2.16.840.1.113883.2.4.3.11.999.77.6.1"/>
                    <value value="MBH_MO_123_5_MGB_1"/>
                </identifier>
                <status value="stopped"/>
                <category>
                    <coding>
                        <system value="urn:oid:2.16.840.1.113883.2.4.3.11.60.20.77.5.3"/>
                        <code value="6"/>
                        <display value="Medicatiegebruik"/>
                    </coding>
                    <text value="Medicatiegebruik"/>
                </category>
                <medicationReference>
                    <reference value="urn:oid:2.16.840.1.113883.2.4.4.7.2105594"/>
                    <display value="PERINDOPRIL TERT-BUTYLAMINE GLENMARK TABLET 8MG"/>
                </medicationReference>
                <effectivePeriod>
                    <start value="${DATE, T, D, -34}T00:00:00+02:00"/>
                </effectivePeriod>
                <dateAsserted value="${DATE, T, D, -33}T13:58:00+02:00"/>
                <subject>
                    <reference value="urn:uuid:47d439dd-d3db-11e9-9443-28f10e481d92"/>
                    <display value="I. XXX_Jangi"/>
                </subject>
                <derivedFrom>
                    <identifier>
                        <system value="urn:oid:2.16.840.1.113883.2.4.3.11.999.77.422037009.1"/>
                        <value value="MBH_MO_123_5_TA_1"/>
                    </identifier>
                    <display value="relatie naar toedieningsafspraak"/>
                </derivedFrom>
                <taken value="n"/>
                <note>
                    <text value="Gestopt vanwege bijwerkingen"/>
                </note>
                <dosage>
                    <text value="Vanaf ${DATE, T, D, -34}, tot nader order, gestaakt"/>
                </dosage>
            </MedicationStatement>
        </resource>
    <search>
         <mode value="include"/>
      </search>
   </entry>
    <entry>
        <fullUrl value="urn:uuid:47d442cc-d3db-11e9-9443-28f10e481d92"/>
        <resource>
            <MedicationStatement>
                <meta>
                    <profile value="http://nictiz.nl/fhir/StructureDefinition/zib-MedicationUse"/>
                </meta>
                <extension url="http://nictiz.nl/fhir/StructureDefinition/zib-MedicationUse-AsAgreedIndicator">
                    <valueBoolean value="false"/>
                </extension>
                <extension url="http://nictiz.nl/fhir/StructureDefinition/zib-MedicationUse-Author">
                    <valueReference>
                        <reference value="urn:uuid:47d442e5-d3db-11e9-9443-28f10e481d92"/>
                        <display value="I. Ternist || Medisch specialisten, inwendige geneeskunde || Antonius"/>
                    </valueReference>
                </extension>
                <extension url="http://nictiz.nl/fhir/StructureDefinition/zib-Medication-MedicationTreatment">
                    <valueIdentifier>
                        <system value="urn:oid:2.16.840.1.113883.2.4.3.11.999.77.1.1"/>
                        <value value="MBH_MO_123_6"/>
                    </valueIdentifier>
                </extension>
                <extension url="http://nictiz.nl/fhir/StructureDefinition/zib-Medication-CopyIndicator">
                    <valueBoolean value="false"/>
                </extension>
                <identifier>
                    <system value="urn:oid:2.16.840.1.113883.2.4.3.11.999.77.6.1"/>
                    <value value="MBH_MO_123_6_MGB_1"/>
                </identifier>
                <status value="active"/>
                <category>
                    <coding>
                        <system value="urn:oid:2.16.840.1.113883.2.4.3.11.60.20.77.5.3"/>
                        <code value="6"/>
                        <display value="Medicatiegebruik"/>
                    </coding>
                    <text value="Medicatiegebruik"/>
                </category>
                <medicationReference>
                    <reference value="urn:oid:2.16.840.1.113883.2.4.4.7.1537792"/>
                    <display value="SIMVASTATINE APOTEX TABLET FILMOMHULD 10MG"/>
                </medicationReference>
                <effectivePeriod>
                    <start value="${DATE, T, D, -248}T00:00:00+02:00"/>
                </effectivePeriod>
                <dateAsserted value="${DATE, T, D, -248}T09:00:00+01:00"/>
                <subject>
                    <reference value="urn:uuid:47d439dd-d3db-11e9-9443-28f10e481d92"/>
                    <display value="I. XXX_Jangi"/>
                </subject>
                <taken value="y"/>
                <note>
                    <text value="Patiënt gebruikt niet volgens voorschrift"/>
                </note>
                <dosage>
                    <text value="Vanaf ${DATE, T, D, -248}, tot nader order, 1 maal per dag 1 tablet 's avonds, oraal"/>
                    <timing>
                        <repeat>
                            <frequency value="1"/>
                            <period value="1"/>
                            <periodUnit value="d"/>
                            <when value="EVE"/>
                        </repeat>
                    </timing>
                    <route>
                        <coding>
                            <system value="urn:oid:2.16.840.1.113883.2.4.4.9"/>
                            <code value="9"/>
                            <display value="oraal"/>
                        </coding>
                    </route>
                    <doseQuantity>
                        <value value="1"/>
                        <unit value="stuk"/>
                        <system value="urn:oid:2.16.840.1.113883.2.4.4.1.900.2"/>
                        <code value="245"/>
                    </doseQuantity>
                </dosage>
            </MedicationStatement>
        </resource>
    <search>
         <mode value="include"/>
      </search>
   </entry>
    <entry>
        <fullUrl value="urn:uuid:47d442f7-d3db-11e9-9443-28f10e481d92"/>
        <resource>
            <MedicationStatement>
                <meta>
                    <profile value="http://nictiz.nl/fhir/StructureDefinition/zib-MedicationUse"/>
                </meta>
                <extension url="http://nictiz.nl/fhir/StructureDefinition/zib-MedicationUse-AsAgreedIndicator">
                    <valueBoolean value="false"/>
                </extension>
                <extension url="http://nictiz.nl/fhir/StructureDefinition/zib-MedicationUse-Author">
                    <valueReference>
                        <reference value="urn:uuid:47d439dd-d3db-11e9-9443-28f10e481d92"/>
                        <display value="I. XXX_Jangi"/>
                    </valueReference>
                </extension>
                <extension url="http://nictiz.nl/fhir/StructureDefinition/zib-Medication-MedicationTreatment">
                    <valueIdentifier>
                        <system value="urn:oid:2.16.840.1.113883.2.4.3.11.999.77.1.1"/>
                        <value value="MBH_MO_123_6"/>
                    </valueIdentifier>
                </extension>
                <identifier>
                    <system value="urn:oid:2.16.840.1.113883.2.4.3.11.999.77.6.1"/>
                    <value value="MBH_MO_123_6_MGB_2"/>
                </identifier>
                <status value="active"/>
                <category>
                    <coding>
                        <system value="urn:oid:2.16.840.1.113883.2.4.3.11.60.20.77.5.3"/>
                        <code value="6"/>
                        <display value="Medicatiegebruik"/>
                    </coding>
                    <text value="Medicatiegebruik"/>
                </category>
                <medicationReference>
                    <reference value="urn:oid:2.16.840.1.113883.2.4.4.10.67814"/>
                    <display value="Simvastine tablet fo 20 mg"/>
                </medicationReference>
                <effectivePeriod>
                    <start value="${DATE, T, D, -248}T00:00:00+02:00"/>
                    <end value="${DATE, T, D, -173}T23:59:00+01:00"/>
                </effectivePeriod>
                <dateAsserted value="${DATE, T, D, -172}T15:37:00+01:00"/>
                <subject>
                    <reference value="urn:uuid:47d439dd-d3db-11e9-9443-28f10e481d92"/>
                    <display value="I. XXX_Jangi"/>
                </subject>
                <derivedFrom>
                    <identifier>
                        <system value="urn:oid:2.16.840.1.113883.2.4.3.11.999.77.16076005.1"/>
                        <value value="MBH_MO_123_6_MA_1"/>
                    </identifier>
                    <display value="relatie naar medicatieafspraak"/>
                </derivedFrom>
                <taken value="y"/>
                <note>
                    <text value="Veel last van jeuk"/>
                </note>
                <dosage>
                    <text value="Vanaf ${DATE, T, D, -248},  tot en met ${DATE, T, D, -173}, 1 maal per dag 1 tablet 's avonds, oraal, gestopt"/>
                    <timing>
                        <repeat>
                            <frequency value="1"/>
                            <period value="1"/>
                            <periodUnit value="d"/>
                            <when value="EVE"/>
                        </repeat>
                    </timing>
                    <route>
                        <coding>
                            <system value="urn:oid:2.16.840.1.113883.2.4.4.9"/>
                            <code value="9"/>
                            <display value="oraal"/>
                        </coding>
                    </route>
                    <doseQuantity>
                        <value value="1"/>
                        <unit value="stuk"/>
                        <system value="urn:oid:2.16.840.1.113883.2.4.4.1.900.2"/>
                        <code value="245"/>
                    </doseQuantity>
                </dosage>
            </MedicationStatement>
        </resource>
    <search>
         <mode value="include"/>
      </search>
   </entry>
    <entry>
        <fullUrl value="urn:uuid:47d439dd-d3db-11e9-9443-28f10e481d92"/>
        <resource>
            <Patient>
                <meta>
                    <profile value="http://fhir.nl/fhir/StructureDefinition/nl-core-patient"/>
                </meta>
                <identifier>
                    <system value="http://fhir.nl/fhir/NamingSystem/bsn"/>
                    <value>
                        <extension url="http://hl7.org/fhir/StructureDefinition/data-absent-reason">
                            <valueCode value="masked"/>
                        </extension>
                    </value>
                </identifier>
                <identifier>
                    <system value="urn:oid:2.16.840.1.113883.2.4.3.11.999.77.19829.1"/>
                    <value value="10009"/>
                </identifier>
                <name>
                    <extension url="http://hl7.org/fhir/StructureDefinition/humanname-assembly-order">
                        <valueCode value="NL1"/>
                    </extension>
                    <family value="XXX_Jangi">
                        <extension url="http://hl7.org/fhir/StructureDefinition/humanname-own-name">
                            <valueString value="XXX_Jangi"/>
                        </extension>
                    </family>
                    <given value="I.">
                        <extension url="http://hl7.org/fhir/StructureDefinition/iso21090-EN-qualifier">
                            <valueCode value="IN"/>
                        </extension>
                    </given>
                </name>
                <telecom>
                    <system value="phone"/>
                    <value value="+31612345678"/>
                    <use value="home">
                        <extension url="http://nictiz.nl/fhir/StructureDefinition/code-specification">
                            <valueCodeableConcept>
                                <coding>
                                    <system value="http://hl7.org/fhir/v3/AddressUse"/>
                                    <code value="HP"/>
                                    <display value="Telefoonnummer thuis"/>
                                </coding>
                            </valueCodeableConcept>
                        </extension>
                    </use>
                </telecom>
                <gender value="male"/>
                <birthDate value="1964-08-02"/>
                <address>
                    <extension url="http://hl7.org/fhir/StructureDefinition/iso21090-AD-use">
                        <valueCode value="PHYS"/>
                    </extension>
                    <use value="home"/>
                    <type value="physical"/>
                    <line value="Knolweg  1002">
                        <extension url="http://hl7.org/fhir/StructureDefinition/iso21090-ADXP-streetName">
                            <valueString value="Knolweg "/>
                        </extension>
                        <extension url="http://hl7.org/fhir/StructureDefinition/iso21090-ADXP-houseNumber">
                            <valueString value="1002"/>
                        </extension>
                    </line>
                    <city value="Stitswerd"/>
                    <postalCode value="9999ZZ"/>
                </address>
            </Patient>
        </resource>
        <search>
            <mode value="include"/>
        </search>
    </entry>
    <entry>
        <fullUrl value="urn:uuid:47d4419f-d3db-11e9-9443-28f10e481d92"/>
        <resource>
            <Practitioner>
                <meta>
                    <profile value="http://fhir.nl/fhir/StructureDefinition/nl-core-practitioner"/>
                </meta>
                <name>
                    <family value="de Vries">
                        <extension url="http://hl7.org/fhir/StructureDefinition/humanname-own-prefix">
                            <valueString value="de"/>
                        </extension>
                        <extension url="http://hl7.org/fhir/StructureDefinition/humanname-own-name">
                            <valueString value="Vries"/>
                        </extension>
                    </family>
                    <given value="John">
                        <extension url="http://hl7.org/fhir/StructureDefinition/iso21090-EN-qualifier">
                            <valueCode value="BR"/>
                        </extension>
                    </given>
                </name>
            </Practitioner>
        </resource>
        <search>
            <mode value="include"/>
        </search>
    </entry>
    <entry>
        <fullUrl value="urn:uuid:47d44205-d3db-11e9-9443-28f10e481d92"/>
        <resource>
            <Practitioner>
                <meta>
                    <profile value="http://fhir.nl/fhir/StructureDefinition/nl-core-practitioner"/>
                </meta>
                <name>
                    <family value="Ternist">
                        <extension url="http://hl7.org/fhir/StructureDefinition/humanname-own-name">
                            <valueString value="Ternist"/>
                        </extension>
                    </family>
                    <given value="I.">
                        <extension url="http://hl7.org/fhir/StructureDefinition/iso21090-EN-qualifier">
                            <valueCode value="IN"/>
                        </extension>
                    </given>
                </name>
            </Practitioner>
        </resource>
        <search>
            <mode value="include"/>
        </search>
    </entry>
    <entry>
        <fullUrl value="urn:oid:2.16.528.1.1007.3.3.1236578"/>
        <resource>
            <Organization>
                <meta>
                    <profile value="http://fhir.nl/fhir/StructureDefinition/nl-core-organization"/>
                </meta>
                <identifier>
                    <system value="http://fhir.nl/fhir/NamingSystem/ura"/>
                    <value value="01236578"/>
                </identifier>
                <name value="Apotheek De Gulle Gaper"/>
            </Organization>
        </resource>
        <search>
            <mode value="include"/>
        </search>
    </entry>
    <entry>
        <fullUrl value="urn:oid:2.16.528.1.1007.3.3.1111"/>
        <resource>
            <Organization>
                <meta>
                    <profile value="http://fhir.nl/fhir/StructureDefinition/nl-core-organization"/>
                </meta>
                <identifier>
                    <system value="http://fhir.nl/fhir/NamingSystem/ura"/>
                    <value value="00001111"/>
                </identifier>
                <name value="Huisartsenpraktijk Pulver &amp; Partners"/>
                <address>
                    <use value="work"/>
                    <line value="Dorpsstraat 1">
                        <extension url="http://hl7.org/fhir/StructureDefinition/iso21090-ADXP-streetName">
                            <valueString value="Dorpsstraat"/>
                        </extension>
                        <extension url="http://hl7.org/fhir/StructureDefinition/iso21090-ADXP-houseNumber">
                            <valueString value="1"/>
                        </extension>
                    </line>
                    <city value="Ons Dorp"/>
                    <postalCode value="1234AA"/>
                </address>
            </Organization>
        </resource>
        <search>
            <mode value="include"/>
        </search>
    </entry>
    <entry>
        <fullUrl value="urn:oid:2.16.528.1.1007.3.3.1113"/>
        <resource>
            <Organization>
                <meta>
                    <profile value="http://fhir.nl/fhir/StructureDefinition/nl-core-organization"/>
                </meta>
                <identifier>
                    <system value="http://fhir.nl/fhir/NamingSystem/ura"/>
                    <value value="00001113"/>
                </identifier>
                <name value="Antonius"/>
                <address>
                    <use value="work"/>
                    <line value="Dorpsstraat 1">
                        <extension url="http://hl7.org/fhir/StructureDefinition/iso21090-ADXP-streetName">
                            <valueString value="Dorpsstraat"/>
                        </extension>
                        <extension url="http://hl7.org/fhir/StructureDefinition/iso21090-ADXP-houseNumber">
                            <valueString value="1"/>
                        </extension>
                    </line>
                    <city value="Ons Dorp"/>
                    <postalCode value="1234AA"/>
                </address>
            </Organization>
        </resource>
        <search>
            <mode value="include"/>
        </search>
    </entry>
    <entry>
        <fullUrl value="urn:uuid:47d442ef-d3db-11e9-9443-28f10e481d92"/>
        <resource>
            <Organization>
                <meta>
                    <profile value="http://fhir.nl/fhir/StructureDefinition/nl-core-organization"/>
                </meta>
                <identifier>
                    <system value="http://fhir.nl/fhir/NamingSystem/ura"/>
                    <value value="00001113"/>
                </identifier>
                <name value="Antonius"/>
            </Organization>
        </resource>
        <search>
            <mode value="include"/>
        </search>
    </entry>
    <entry>
        <fullUrl value="urn:oid:2.16.528.1.1007.3.3.13336578"/>
        <resource>
            <Organization>
                <meta>
                    <profile value="http://fhir.nl/fhir/StructureDefinition/nl-core-organization"/>
                </meta>
                <identifier>
                    <system value="http://fhir.nl/fhir/NamingSystem/ura"/>
                    <value value="13336578"/>
                </identifier>
                <name value="Poliapotheek Antonius"/>
            </Organization>
        </resource>
        <search>
            <mode value="include"/>
        </search>
    </entry>
    <entry>
        <fullUrl value="urn:uuid:47d443b9-d3db-11e9-9443-28f10e481d92"/>
        <resource>
            <Organization>
                <meta>
                    <profile value="http://fhir.nl/fhir/StructureDefinition/nl-core-organization"/>
                </meta>
                <name value="Apotheek de Gulle Gaper"/>
                <telecom>
                    <system value="phone"/>
                    <value value="+31703655424"/>
                    <use value="work">
                        <extension url="http://nictiz.nl/fhir/StructureDefinition/code-specification">
                            <valueCodeableConcept>
                                <coding>
                                    <system value="http://hl7.org/fhir/v3/AddressUse"/>
                                    <code value="WP"/>
                                    <display value="Zakelijk telefoonnummer"/>
                                </coding>
                            </valueCodeableConcept>
                        </extension>
                    </use>
                </telecom>
                <telecom>
                    <system value="email"/>
                    <value value="info@apotheekgullegaper.com"/>
                    <use value="work">
                        <extension url="http://nictiz.nl/fhir/StructureDefinition/code-specification">
                            <valueCodeableConcept>
                                <coding>
                                    <system value="http://hl7.org/fhir/v3/AddressUse"/>
                                    <code value="WP"/>
                                    <display value="Zakelijk e-mailadres"/>
                                </coding>
                            </valueCodeableConcept>
                        </extension>
                    </use>
                </telecom>
                <address>
                    <use value="work"/>
                    <line value="Zalfstraat 6">
                        <extension url="http://hl7.org/fhir/StructureDefinition/iso21090-ADXP-streetName">
                            <valueString value="Zalfstraat"/>
                        </extension>
                        <extension url="http://hl7.org/fhir/StructureDefinition/iso21090-ADXP-houseNumber">
                            <valueString value="6"/>
                        </extension>
                    </line>
                    <city value="Ons Dorp"/>
                    <postalCode value="1235BB"/>
                </address>
            </Organization>
        </resource>
        <search>
            <mode value="include"/>
        </search>
    </entry>
    <entry>
        <fullUrl value="urn:uuid:47d4419e-d3db-11e9-9443-28f10e481d92"/>
        <resource>
            <PractitionerRole>
                <meta>
                    <profile value="http://fhir.nl/fhir/StructureDefinition/nl-core-practitionerrole"/>
                </meta>
                <practitioner>
                    <reference value="urn:uuid:47d4419f-d3db-11e9-9443-28f10e481d92"/>
                    <display value="John de Vries"/>
                </practitioner>
                <organization>
                    <reference value="urn:oid:2.16.528.1.1007.3.3.1111"/>
                    <display value="Huisartsenpraktijk Pulver &amp; Partners"/>
                </organization>
                <specialty>
                    <coding>
                        <system value="urn:oid:2.16.840.1.113883.2.4.6.7"/>
                        <code value="0100"/>
                        <display value="Huisartsen, niet nader gespecificeerd"/>
                    </coding>
                </specialty>
            </PractitionerRole>
        </resource>
        <search>
            <mode value="include"/>
        </search>
    </entry>
    <entry>
        <fullUrl value="urn:uuid:47d44204-d3db-11e9-9443-28f10e481d92"/>
        <resource>
            <PractitionerRole>
                <meta>
                    <profile value="http://fhir.nl/fhir/StructureDefinition/nl-core-practitionerrole"/>
                </meta>
                <practitioner>
                    <reference value="urn:uuid:47d44205-d3db-11e9-9443-28f10e481d92"/>
                    <display value="I. Ternist"/>
                </practitioner>
                <organization>
                    <reference value="urn:oid:2.16.528.1.1007.3.3.1113"/>
                    <display value="Antonius"/>
                </organization>
                <specialty>
                    <coding>
                        <system value="urn:oid:2.16.840.1.113883.2.4.6.7"/>
                        <code value="0313"/>
                        <display value="Medisch specialisten, inwendige geneeskunde"/>
                    </coding>
                </specialty>
            </PractitionerRole>
        </resource>
        <search>
            <mode value="include"/>
        </search>
    </entry>
    <entry>
        <fullUrl value="urn:uuid:47d442e5-d3db-11e9-9443-28f10e481d92"/>
        <resource>
            <PractitionerRole>
                <meta>
                    <profile value="http://fhir.nl/fhir/StructureDefinition/nl-core-practitionerrole"/>
                </meta>
                <practitioner>
                    <reference value="urn:uuid:47d44205-d3db-11e9-9443-28f10e481d92"/>
                    <display value="I. Ternist"/>
                </practitioner>
                <organization>
                    <reference value="urn:uuid:47d442ef-d3db-11e9-9443-28f10e481d92"/>
                    <display value="Antonius"/>
                </organization>
                <specialty>
                    <coding>
                        <system value="urn:oid:2.16.840.1.113883.2.4.6.7"/>
                        <code value="0313"/>
                        <display value="Medisch specialisten, inwendige geneeskunde"/>
                    </coding>
                </specialty>
            </PractitionerRole>
        </resource>
        <search>
            <mode value="include"/>
        </search>
    </entry>
    <entry>
        <fullUrl value="urn:uuid:47d43e32-d3db-11e9-9443-28f10e481d92"/>
        <resource>
            <Medication>
                <meta>
                    <profile value="http://nictiz.nl/fhir/StructureDefinition/zib-Product"/>
                </meta>
                <code>
                    <text value="Ibuprofen"/>
                </code>
            </Medication>
        </resource>
        <search>
            <mode value="include"/>
        </search>
    </entry>
    <entry>
        <fullUrl value="urn:uuid:47d441eb-d3db-11e9-9443-28f10e481d92"/>
        <resource>
            <Medication>
                <meta>
                    <profile value="http://nictiz.nl/fhir/StructureDefinition/zib-Product"/>
                </meta>
                <code>
                    <text value="Glimepiride"/>
                </code>
            </Medication>
        </resource>
        <search>
            <mode value="include"/>
        </search>
    </entry>
    <entry>
        <fullUrl value="urn:oid:2.16.840.1.113883.2.4.4.7.400629"/>
        <resource>
            <Medication>
                <meta>
                    <profile value="http://nictiz.nl/fhir/StructureDefinition/zib-Product"/>
                </meta>
                <code>
                    <coding>
                        <system value="urn:oid:2.16.840.1.113883.2.4.4.7"/>
                        <code value="400629"/>
                        <display value="Emovate zalf 0,5 mg/g"/>
                        <userSelected value="true"/>
                    </coding>
                    <coding>
                        <system value="urn:oid:2.16.840.1.113883.2.4.4.10"/>
                        <code value="65617"/>
                        <display value="CLOBETASON ZALF 0,5MG/G"/>
                    </coding>
                    <coding>
                        <system value="urn:oid:2.16.840.1.113883.2.4.4.1"/>
                        <code value="115606"/>
                        <display value="CLOBETASON ZALF 0,5MG/G"/>
                    </coding>
                </code>
            </Medication>
        </resource>
        <search>
            <mode value="include"/>
        </search>
    </entry>
    <entry>
        <fullUrl value="urn:oid:2.16.840.1.113883.2.4.4.10.44458"/>
        <resource>
            <Medication>
                <meta>
                    <profile value="http://nictiz.nl/fhir/StructureDefinition/zib-Product"/>
                </meta>
                <code>
                    <coding>
                        <system value="urn:oid:2.16.840.1.113883.2.4.4.10"/>
                        <code value="44458"/>
                        <display value="GLIMEPIRIDE TABLET 3MG"/>
                        <userSelected value="true"/>
                    </coding>
                    <coding>
                        <system value="urn:oid:2.16.840.1.113883.2.4.4.1"/>
                        <code value="98345"/>
                        <display value="GLIMEPIRIDE TABLET 3MG"/>
                    </coding>
                </code>
            </Medication>
        </resource>
        <search>
            <mode value="include"/>
        </search>
    </entry>
    <entry>
        <fullUrl value="urn:oid:2.16.840.1.113883.2.4.4.7.1753029"/>
        <resource>
            <Medication>
                <meta>
                    <profile value="http://nictiz.nl/fhir/StructureDefinition/zib-Product"/>
                </meta>
                <code>
                    <coding>
                        <system value="urn:oid:2.16.840.1.113883.2.4.4.7"/>
                        <code value="1753029"/>
                        <display value="Glimepiride activis tablet 3mg"/>
                        <userSelected value="true"/>
                    </coding>
                    <coding>
                        <system value="urn:oid:2.16.840.1.113883.2.4.4.10"/>
                        <code value="44458"/>
                        <display value="GLIMEPIRIDE TABLET 3MG"/>
                    </coding>
                    <coding>
                        <system value="urn:oid:2.16.840.1.113883.2.4.4.1"/>
                        <code value="98345"/>
                        <display value="GLIMEPIRIDE TABLET 3MG"/>
                    </coding>
                </code>
            </Medication>
        </resource>
        <search>
            <mode value="include"/>
        </search>
    </entry>
    <entry>
        <fullUrl value="urn:oid:2.16.840.1.113883.2.4.4.10.121312"/>
        <resource>
            <Medication>
                <meta>
                    <profile value="http://nictiz.nl/fhir/StructureDefinition/zib-Product"/>
                </meta>
                <code>
                    <coding>
                        <system value="urn:oid:2.16.840.1.113883.2.4.4.10"/>
                        <code value="121312"/>
                        <display value="INSULINE GLARGINE INJVLST 100E/ML"/>
                        <userSelected value="true"/>
                    </coding>
                    <coding>
                        <system value="urn:oid:2.16.840.1.113883.2.4.4.1"/>
                        <code value="128651"/>
                        <display value="INSULINE GLARGINE INJVLST 100E/ML"/>
                    </coding>
                </code>
            </Medication>
        </resource>
        <search>
            <mode value="include"/>
        </search>
    </entry>
    <entry>
        <fullUrl value="urn:oid:2.16.840.1.113883.2.4.4.7.1859226"/>
        <resource>
            <Medication>
                <meta>
                    <profile value="http://nictiz.nl/fhir/StructureDefinition/zib-Product"/>
                </meta>
                <code>
                    <coding>
                        <system value="urn:oid:2.16.840.1.113883.2.4.4.7"/>
                        <code value="1859226"/>
                        <display value="LANTUS SOLOSTAR INJ 100E/ML PEN 3ML"/>
                        <userSelected value="true"/>
                    </coding>
                    <coding>
                        <system value="urn:oid:2.16.840.1.113883.2.4.4.10"/>
                        <code value="121312"/>
                        <display value="INSULINE GLARGINE INJVLST 100E/ML"/>
                    </coding>
                    <coding>
                        <system value="urn:oid:2.16.840.1.113883.2.4.4.1"/>
                        <code value="128651"/>
                        <display value="INSULINE GLARGINE INJVLST 100E/ML"/>
                    </coding>
                </code>
            </Medication>
        </resource>
        <search>
            <mode value="include"/>
        </search>
    </entry>
    <entry>
        <fullUrl value="urn:oid:2.16.840.1.113883.2.4.4.7.2105594"/>
        <resource>
            <Medication>
                <meta>
                    <profile value="http://nictiz.nl/fhir/StructureDefinition/zib-Product"/>
                </meta>
                <code>
                    <coding>
                        <system value="urn:oid:2.16.840.1.113883.2.4.4.7"/>
                        <code value="2105594"/>
                        <display value="PERINDOPRIL TERT-BUTYLAMINE GLENMARK TABLET 8MG"/>
                        <userSelected value="true"/>
                    </coding>
                    <coding>
                        <system value="urn:oid:2.16.840.1.113883.2.4.4.10"/>
                        <code value="69523"/>
                        <display value="PERINDOPRIL TABLET 8MG (ERBUMINE)"/>
                    </coding>
                    <coding>
                        <system value="urn:oid:2.16.840.1.113883.2.4.4.1"/>
                        <code value="117722"/>
                        <display value="PERINDOPRIL TABLET 8MG (ERBUMINE)"/>
                    </coding>
                </code>
            </Medication>
        </resource>
        <search>
            <mode value="include"/>
        </search>
    </entry>
    <entry>
        <fullUrl value="urn:oid:2.16.840.1.113883.2.4.4.10.67814"/>
        <resource>
            <Medication>
                <meta>
                    <profile value="http://nictiz.nl/fhir/StructureDefinition/zib-Product"/>
                </meta>
                <code>
                    <coding>
                        <system value="urn:oid:2.16.840.1.113883.2.4.4.10"/>
                        <code value="67814"/>
                        <display value="Simvastine tablet fo 20 mg"/>
                        <userSelected value="true"/>
                    </coding>
                    <coding>
                        <system value="urn:oid:2.16.840.1.113883.2.4.4.1"/>
                        <code value="116580"/>
                        <display value="Simvastine tablet fo 20 mg"/>
                    </coding>
                </code>
            </Medication>
        </resource>
        <search>
            <mode value="include"/>
        </search>
    </entry>
    <entry>
        <fullUrl value="urn:oid:2.16.840.1.113883.2.4.4.7.1537792"/>
        <resource>
            <Medication>
                <meta>
                    <profile value="http://nictiz.nl/fhir/StructureDefinition/zib-Product"/>
                </meta>
                <code>
                    <coding>
                        <system value="urn:oid:2.16.840.1.113883.2.4.4.7"/>
                        <code value="1537792"/>
                        <display value="SIMVASTATINE APOTEX TABLET FILMOMHULD 10MG"/>
                        <userSelected value="true"/>
                    </coding>
                    <coding>
                        <system value="urn:oid:2.16.840.1.113883.2.4.4.10"/>
                        <code value="67806"/>
                        <display value="SIMVASTATINE 10MG TABLET FO"/>
                    </coding>
                    <coding>
                        <system value="urn:oid:2.16.840.1.113883.2.4.4.1"/>
                        <code value="116572"/>
                        <display value="SIMVASTATINE 10MG TABLET FO"/>
                    </coding>
                </code>
            </Medication>
        </resource>
        <search>
            <mode value="include"/>
        </search>
    </entry>
    <entry>
        <fullUrl value="urn:oid:2.16.840.1.113883.2.4.4.10.5274"/>
        <resource>
            <Medication>
                <meta>
                    <profile value="http://nictiz.nl/fhir/StructureDefinition/zib-Product"/>
                </meta>
                <code>
                    <coding>
                        <system value="urn:oid:2.16.840.1.113883.2.4.4.10"/>
                        <code value="5274"/>
                        <display value="Flucloxacilline capsule 500mg"/>
                        <userSelected value="true"/>
                    </coding>
                    <coding>
                        <system value="urn:oid:2.16.840.1.113883.2.4.4.1"/>
                        <code value="15466"/>
                        <display value="Flucloxacilline capsule 500mg"/>
                    </coding>
                </code>
            </Medication>
        </resource>
        <search>
            <mode value="include"/>
        </search>
    </entry>
    <entry>
        <fullUrl value="urn:oid:2.16.840.1.113883.2.4.4.7.2230879"/>
        <resource>
            <Medication>
                <meta>
                    <profile value="http://nictiz.nl/fhir/StructureDefinition/zib-Product"/>
                </meta>
                <code>
                    <coding>
                        <system value="urn:oid:2.16.840.1.113883.2.4.4.7"/>
                        <code value="2230879"/>
                        <display value="Atorvastatine ranbaxy tablet filmomhuld 40 mg"/>
                        <userSelected value="true"/>
                    </coding>
                    <coding>
                        <system value="urn:oid:2.16.840.1.113883.2.4.4.10"/>
                        <code value="98620"/>
                        <display value="ATORVASTATINE TABLET 40MG (ALS CA-ZOUT-3-WATER)"/>
                    </coding>
                    <coding>
                        <system value="urn:oid:2.16.840.1.113883.2.4.4.1"/>
                        <code value="137219"/>
                        <display value="ATORVASTATINE TABLET 40MG (ALS CA-ZOUT-3-WATER)"/>
                    </coding>
                </code>
            </Medication>
        </resource>
        <search>
            <mode value="include"/>
        </search>
    </entry>
    <entry>
        <fullUrl value="urn:oid:2.16.840.1.113883.2.4.4.7.2105586"/>
        <resource>
            <Medication>
                <meta>
                    <profile value="http://nictiz.nl/fhir/StructureDefinition/zib-Product"/>
                </meta>
                <code>
                    <coding>
                        <system value="urn:oid:2.16.840.1.113883.2.4.4.7"/>
                        <code value="2105586"/>
                        <display value="PERINDOPRIL TERT-BUTYLAMINE GLENMARK TABLET 4MG"/>
                        <userSelected value="true"/>
                    </coding>
                    <coding>
                        <system value="urn:oid:2.16.840.1.113883.2.4.4.10"/>
                        <code value="29076"/>
                        <display value="PERINDOPRIL TABLET 4MG (ERBUMINE)"/>
                    </coding>
                    <coding>
                        <system value="urn:oid:2.16.840.1.113883.2.4.4.1"/>
                        <code value="75434"/>
                        <display value="PERINDOPRIL TABLET 4MG (ERBUMINE)"/>
                    </coding>
                </code>
            </Medication>
        </resource>
        <search>
            <mode value="include"/>
        </search>
    </entry>
 </Bundle>
