<Bundle xmlns="http://hl7.org/fhir">
   <id value="mg-mp-mg-tst-TA-Scenarioset5-v20-5-4"/>
   <type value="searchset"/>
   <total value="1"/>
   <entry>
      <fullUrl value="urn:uuid:c33f0104-6a95-11ec-0000-020000000000"/>
      <resource>
         <MedicationDispense>
            <id value="mp-AdmAgr--MBH200geengebruikvolgensafspraakTA"/>
            <meta>
               <profile value="http://nictiz.nl/fhir/StructureDefinition/mp-AdministrationAgreement"/>
            </meta>
            <extension url="http://nictiz.nl/fhir/StructureDefinition/ext-AdministrationAgreement.AdministrationAgreementDateTime">
               <valueDateTime value="2021-09-23T09:00:00+02:00"/>
            </extension>
            <extension url="http://nictiz.nl/fhir/StructureDefinition/ext-RenderedDosageInstruction">
               <valueString value="Vanaf 23 sep 2021, 1 maal per dag 1 stuk, oraal"/>
            </extension>
            <extension url="http://nictiz.nl/fhir/StructureDefinition/ext-TimeInterval.Period">
               <valuePeriod>
                  <start value="2021-09-23T00:00:00+02:00"/>
               </valuePeriod>
            </extension>
            <extension url="http://nictiz.nl/fhir/StructureDefinition/ext-PharmaceuticalTreatment.Identifier">
               <valueIdentifier>
                  <system value="urn:oid:2.16.840.1.113883.2.4.3.11.999.77.1.1"/>
                  <value value="MBH_200_geen_gebruik_volgens_afspraak"/>
               </valueIdentifier>
            </extension>
            <identifier>
               <system value="urn:oid:2.16.840.1.113883.2.4.3.11.999.77.422037009.1"/>
               <value value="MBH_200_geen_gebruik_volgens_afspraak_TA"/>
            </identifier>
            <status value="unknown"/>
            <category>
               <coding>
                  <system value="http://snomed.info/sct"/>
                  <code value="422037009"/>
                  <display value="toedieningsafspraak"/>
               </coding>
            </category>
            <medicationReference>
               <reference value="urn:uuid:c33f0122-6a95-11ec-0000-020000000000"/>
               <type value="Medication"/>
               <display value="HYDROCHLOORTHIAZIDE APOTEX TABLET 12,5MG"/>
            </medicationReference>
            <subject>
               <reference value="urn:uuid:c33f00e6-6a95-11ec-0000-020000000000"/>
               <type value="Patient"/>
               <display value="Patient, M. XXX_Raamsdonk"/>
            </subject>
            <performer>
               <actor>
                  <reference value="urn:uuid:c33f0140-6a95-11ec-0000-020000000000"/>
                  <type value="Organization"/>
                  <display value="Healthcare provider (organization), Apotheek De Gulle Gaper"/>
               </actor>
            </performer>
            <authorizingPrescription>
               <type value="MedicationRequest"/>
               <identifier>
                  <system value="urn:oid:2.16.840.1.113883.2.4.3.11.999.77.16076005.1"/>
                  <value value="MBH_200_geen_gebruik_volgens_afspraak_MA"/>
               </identifier>
               <display value="relatie naar medicatieafspraak met identificatie: MBH_200_geen_gebruik_volgens_afspraak_MA || 2.16.840.1.113883.2.4.3.11.999.77.16076005.1"/>
            </authorizingPrescription>
            <dosageInstruction>
               <timing>
                  <repeat>
                     <frequency value="1"/>
                     <period value="1"/>
                     <periodUnit value="d"/>
                  </repeat>
               </timing>
               <route>
                  <coding>
                     <system value="urn:oid:2.16.840.1.113883.2.4.4.9"/>
                     <code value="9"/>
                     <display value="oraal"/>
                  </coding>
               </route>
               <doseAndRate>
                  <doseQuantity>
                     <extension url="http://hl7.org/fhir/StructureDefinition/iso21090-PQ-translation">
                        <valueQuantity>
                           <value value="1"/>
                           <unit value="stuk"/>
                           <system value="urn:oid:2.16.840.1.113883.2.4.4.1.900.2"/>
                           <code value="245"/>
                        </valueQuantity>
                     </extension>
                     <value value="1"/>
                     <unit value="stuk"/>
                     <system value="http://unitsofmeasure.org"/>
                     <code value="1"/>
                  </doseQuantity>
               </doseAndRate>
            </dosageInstruction>
         </MedicationDispense>
      </resource>
      <search>
         <mode value="match"/>
      </search>
   </entry>
   <entry>
      <fullUrl value="urn:uuid:c33f00e6-6a95-11ec-0000-020000000000"/>
      <resource>
         <Patient>
            <id value="nl-core-Patient--M-XXX-Raamsdonk"/>
            <meta>
               <profile value="http://nictiz.nl/fhir/StructureDefinition/nl-core-Patient"/>
            </meta>
            <identifier>
               <system value="http://fhir.nl/fhir/NamingSystem/bsn"/>
               <value value="999900924"/>
            </identifier>
            <name>
               <extension url="http://hl7.org/fhir/StructureDefinition/humanname-assembly-order">
                  <valueCode value="NL1"/>
               </extension>
               <use value="official"/>
               <text value="M. XXX_Raamsdonk"/>
               <family value="XXX_Raamsdonk">
                  <extension url="http://hl7.org/fhir/StructureDefinition/humanname-own-name">
                     <valueString value="XXX_Raamsdonk"/>
                  </extension>
               </family>
               <given value="M.">
                  <extension url="http://hl7.org/fhir/StructureDefinition/iso21090-EN-qualifier">
                     <valueCode value="IN"/>
                  </extension>
               </given>
            </name>
            <gender value="male">
               <extension url="http://nictiz.nl/fhir/StructureDefinition/ext-CodeSpecification">
                  <valueCodeableConcept>
                     <coding>
                        <system value="http://terminology.hl7.org/CodeSystem/v3-AdministrativeGender"/>
                        <code value="M"/>
                        <display value="Man"/>
                     </coding>
                  </valueCodeableConcept>
               </extension>
            </gender>
            <birthDate value="1985-11-06"/>
         </Patient>
      </resource>
      <search>
         <mode value="match"/>
      </search>
   </entry>
   <entry>
      <fullUrl value="urn:uuid:c33f0140-6a95-11ec-0000-020000000000"/>
      <resource>
         <Organization>
            <id value="nl-core-HPrv-Org--2165281100733-01236578"/>
            <meta>
               <profile value="http://nictiz.nl/fhir/StructureDefinition/nl-core-HealthcareProvider-Organization"/>
            </meta>
            <identifier>
               <system value="http://fhir.nl/fhir/NamingSystem/ura"/>
               <value value="01236578"/>
            </identifier>
            <name value="Apotheek De Gulle Gaper"/>
         </Organization>
      </resource>
      <search>
         <mode value="match"/>
      </search>
   </entry>
   <entry>
      <fullUrl value="urn:uuid:c33f0122-6a95-11ec-0000-020000000000"/>
      <resource>
         <Medication>
            <id value="nl-core-PhPrd--21684011138832447-2530104"/>
            <meta>
               <profile value="http://nictiz.nl/fhir/StructureDefinition/nl-core-PharmaceuticalProduct"/>
            </meta>
            <code>
               <coding>
                  <system value="urn:oid:2.16.840.1.113883.2.4.4.7"/>
                  <code value="2530104"/>
                  <display value="HYDROCHLOORTHIAZIDE APOTEX TABLET 12,5MG"/>
                  <userSelected value="true"/>
               </coding>
               <coding>
                  <system value="urn:oid:2.16.840.1.113883.2.4.4.10"/>
                  <code value="76333"/>
                  <display value="HYDROCHLOORTHIAZIDE TABLET 12,5MG"/>
               </coding>
               <coding>
                  <system value="urn:oid:2.16.840.1.113883.2.4.4.1"/>
                  <code value="122602"/>
                  <display value="HYDROCHLOORTHIAZIDE TABLET 12,5MG"/>
               </coding>
               <text value="HYDROCHLOORTHIAZIDE APOTEX TABLET 12,5MG"/>
            </code>
         </Medication>
      </resource>
      <search>
         <mode value="match"/>
      </search>
   </entry>
</Bundle>